loggingTime(txt),locationTimestamp_since1970(s),locationLatitude(WGS84),locationLongitude(WGS84),locationAltitude(m),locationSpeed(m/s),locationSpeedAccuracy(m/s),locationCourse(°),locationCourseAccuracy(°),locationVerticalAccuracy(m),locationHorizontalAccuracy(m),locationFloor(Z),accelerometerTimestamp_sinceReboot(s),accelerometerAccelerationX(G),accelerometerAccelerationY(G),accelerometerAccelerationZ(G),motionTimestamp_sinceReboot(s),motionYaw(rad),motionRoll(rad),motionPitch(rad),motionRotationRateX(rad/s),motionRotationRateY(rad/s),motionRotationRateZ(rad/s),motionUserAccelerationX(G),motionUserAccelerationY(G),motionUserAccelerationZ(G),motionAttitudeReferenceFrame(txt),motionQuaternionX(R),motionQuaternionY(R),motionQuaternionZ(R),motionQuaternionW(R),motionGravityX(G),motionGravityY(G),motionGravityZ(G),motionMagneticFieldX(µT),motionMagneticFieldY(µT),motionMagneticFieldZ(µT),motionHeading(°),motionMagneticFieldCalibrationAccuracy(Z),activityTimestamp_sinceReboot(s),activity(txt),activityActivityConfidence(Z),activityActivityStartDate(txt),pedometerStartDate(txt),pedometerNumberofSteps(N),pedometerAverageActivePace(s/m),pedometerCurrentPace(s/m),pedometerCurrentCadence(steps/s),pedometerDistance(m),pedometerFloorAscended(N),pedometerFloorDescended(N),pedometerEndDate(txt),altimeterTimestamp_sinceReboot(s),altimeterReset(bool),altimeterRelativeAltitude(m),altimeterPressure(kPa),batteryState(N),batteryLevel(R),heartRateBPMTimestamp(txt),heartRateBPM(N),heartRateBPS(R),heartRateVariabilityTimestamp(txt),heartRateVariability(ms),label
2025-04-18T10:36:49.812+03:00,1744961806.632765,40.95359955957566,29.14097773549451,92.97792,-1,-1,-1,-1,30,24.65132846138212,-9999,61449.70325066667,-0.6984100341796875,0.6414031982421875,-0.3625946044921875,61449.69317466667,1.31641559080044,-1.091053392479275,-0.6799797523465485,0.06544702500104904,-0.02199464105069637,-0.003875093068927526,-0.008603394031524658,0.0005867481231689453,0.01783108711242676,XArbitraryZVertical,0.07370399662457795,-0.5613554738034687,0.6298646854938922,0.5317126725677574,-0.6898066997528076,0.6287772655487061,-0.3588955104351044,0,0,0,-1,-1,61449.50048666667,unknown,2,2025-04-18T10:36:49.579+03:00,2025-04-17T15:44:39.500+03:00,7155,1.074305,0,0,5905.219,4,10,2025-04-18T10:36:49.579+03:00,766654609.6785992,0,108.39,100.5556,1,0.7,2025-04-18T10:36:45.418+03:00,109,1.816666666666667,2025-04-18T08:51:18.885+03:00,0.03057091307199995,1
2025-04-18T10:36:49.814+03:00,1744961806.632765,40.95359955957566,29.14097773549451,92.97792,-1,-1,-1,-1,30,24.65132846138212,-9999,61449.71332766667,-0.6753997802734375,0.6371002197265625,-0.346221923828125,61449.70325066667,1.317309399328895,-1.090665692500756,-0.679713027420768,0.08207746595144272,-0.00318972859531641,0.008519956842064857,-0.0124695897102356,0.0100257396697998,-0.002270817756652832,XArbitraryZVertical,0.07393185123891934,-0.5611719013462634,0.6300882660684904,0.5316098756672099,-0.6898162364959717,0.6285698413848877,-0.3592403531074524,0,0,0,-1,-1,61449.50048666667,unknown,2,2025-04-18T10:36:49.579+03:00,2025-04-17T15:44:39.500+03:00,7155,1.074305,0,0,5905.219,4,10,2025-04-18T10:36:49.579+03:00,766654609.6785992,0,108.39,100.5556,1,0.7,2025-04-18T10:36:45.418+03:00,109,1.816666666666667,2025-04-18T08:51:18.885+03:00,0.03057091307199995,1
2025-04-18T10:36:49.815+03:00,1744961806.632765,40.95359955957566,29.14097773549451,92.97792,-1,-1,-1,-1,30,24.65132846138212,-9999,61449.72340366667,-0.68756103515625,0.63568115234375,-0.345794677734375,61449.71332766667,1.318305202622135,-1.090056014983905,-0.6794672351626253,0.07175665348768234,-0.002700772136449814,0.01556108798831701,0.01415109634399414,0.01104086637496948,0.01076385378837585,XArbitraryZVertical,0.0741104425068403,-0.5609291470339524,0.6303494381433699,0.5315315310503643,-0.6897339820861816,0.628378689289093,-0.3597322702407837,0,0,0,-1,-1,61449.50048666667,unknown,2,2025-04-18T10:36:49.579+03:00,2025-04-17T15:44:39.500+03:00,7155,1.074305,0,0,5905.219,4,10,2025-04-18T10:36:49.579+03:00,766654609.6785992,0,108.39,100.5556,1,0.7,2025-04-18T10:36:45.418+03:00,109,1.816666666666667,2025-04-18T08:51:18.885+03:00,0.03057091307199995,1
2025-04-18T10:36:49.818+03:00,1744961806.632765,40.95359955957566,29.14097773549451,92.97792,-1,-1,-1,-1,30,24.65132846138212,-9999,61449.73348066667,-0.68353271484375,0.63067626953125,-0.35247802734375,61449.72340366667,1.319173629224968,-1.089424167901437,-0.6793521905563988,0.05694201961159706,0.01940453052520752,0.02228383906185627,0.00234532356262207,0.006720602512359619,0.01552075147628784,XArbitraryZVertical,0.07419746987930254,-0.5607084562992374,0.6305914643969852,0.5314652917317849,-0.6895707249641418,0.6282891631126404,-0.3602015376091003,0,0,0,-1,-1,61449.50048666667,unknown,2,2025-04-18T10:36:49.579+03:00,2025-04-17T15:44:39.500+03:00,7155,1.074305,0,0,5905.219,4,10,2025-04-18T10:36:49.579+03:00,766654609.6785992,0,108.39,100.5556,1,0.7,2025-04-18T10:36:45.418+03:00,109,1.816666666666667,2025-04-18T08:51:18.885+03:00,0.03057091307199995,1
2025-04-18T10:36:49.827+03:00,1744961806.632765,40.95359955957566,29.14097773549451,92.97792,-1,-1,-1,-1,30,24.65132846138212,-9999,61449.74355666667,-0.6894683837890625,0.6287384033203125,-0.3558807373046875,61449.73348066667,1.319915530022187,-1.088654804575769,-0.6793504384583914,0.04160860553383827,0.04073085635900497,0.02889407239854336,0.006265044212341309,0.003807544708251953,0.009688794612884521,XArbitraryZVertical,0.07416349966749521,-0.5604761993149601,0.6308169666027079,0.5314472894110213,-0.6892942786216736,0.6282877922058105,-0.3607324063777924,0,0,0,-1,-1,61449.50048666667,unknown,2,2025-04-18T10:36:49.579+03:00,2025-04-17T15:44:39.500+03:00,7155,1.074305,0,0,5905.219,4,10,2025-04-18T10:36:49.579+03:00,766654609.6785992,0,108.39,100.5556,1,0.7,2025-04-18T10:36:45.418+03:00,109,1.816666666666667,2025-04-18T08:51:18.885+03:00,0.03057091307199995,1
2025-04-18T10:36:49.837+03:00,1744961806.632765,40.95359955957566,29.14097773549451,92.97792,-1,-1,-1,-1,30,24.65132846138212,-9999,61449.75363366667,-0.687744140625,0.6261444091796875,-0.357086181640625,61449.74355666667,1.320516883395299,-1.087942252653369,-0.6794052102976462,0.03669853508472443,0.02644246444106102,0.03257615864276886,0.0003163814544677734,0.0002400875091552734,0.005967646837234497,XArbitraryZVertical,0.07408688547538798,-0.5602743923856657,0.6310089439755699,0.531442807132098,-0.6890065670013428,0.628330409526825,-0.3612074851989746,0,0,0,-1,-1,61449.50048666667,unknown,2,2025-04-18T10:36:49.579+03:00,2025-04-17T15:44:39.500+03:00,7155,1.074305,0,0,5905.219,4,10,2025-04-18T10:36:49.579+03:00,766654609.6785992,0,108.39,100.5556,1,0.7,2025-04-18T10:36:45.418+03:00,109,1.816666666666667,2025-04-18T08:51:18.885+03:00,0.03057091307199995,1
2025-04-18T10:36:49.847+03:00,1744961806.632765,40.95359955957566,29.14097773549451,92.97792,-1,-1,-1,-1,30,24.65132846138212,-9999,61449.76370966667,-0.6833038330078125,0.6243743896484375,-0.35443115234375,61449.75363366667,1.321105011429566,-1.087408267441466,-0.6795960046429458,0.03395308181643486,0.01626306399703026,0.04671301692724228,0.0002308487892150879,-0.002136111259460449,0.003975719213485718,XArbitraryZVertical,0.07401225652056501,-0.5601449644890431,0.631205047438777,0.5313567273714789,-0.6887074112892151,0.6284788250923157,-0.3615196049213409,0,0,0,-1,-1,61449.50048666667,unknown,2,2025-04-18T10:36:49.579+03:00,2025-04-17T15:44:39.500+03:00,7155,1.074305,0,0,5905.219,4,10,2025-04-18T10:36:49.579+03:00,766654609.6785992,0,108.39,100.5556,1,0.7,2025-04-18T10:36:45.418+03:00,109,1.816666666666667,2025-04-18T08:51:18.885+03:00,0.03057091307199995,1
2025-04-18T10:36:49.858+03:00,1744961806.632765,40.95359955957566,29.14097773549451,92.97792,-1,-1,-1,-1,30,24.65132846138212,-9999,61449.77378666667,-0.6877593994140625,0.62725830078125,-0.3576202392578125,61449.76370966667,1.321737279964448,-1.086925595593578,-0.6799195045450078,0.03695326671004295,0.01584002189338207,0.04416603222489357,0.005323708057403564,-0.004111886024475098,0.006777048110961914,XArbitraryZVertical,0.07391676084361738,-0.5600514266444055,0.6314248008979667,0.5312075997057172,-0.6883528828620911,0.6287304162979126,-0.3617574274539948,0,0,0,-1,-1,61449.50048666667,unknown,2,2025-04-18T10:36:49.579+03:00,2025-04-17T15:44:39.500+03:00,7155,1.074305,0,0,5905.219,4,10,2025-04-18T10:36:49.579+03:00,766654609.6785992,0,108.39,100.5556,1,0.7,2025-04-18T10:36:45.418+03:00,109,1.816666666666667,2025-04-18T08:51:18.885+03:00,0.03057091307199995,1
2025-04-18T10:36:49.868+03:00,1744961806.632765,40.95359955957566,29.14097773549451,92.97792,-1,-1,-1,-1,30,24.65132846138212,-9999,61449.78386266667,-0.6873626708984375,0.6297454833984375,-0.3669891357421875,61449.77378666667,1.322293743041363,-1.086477916717062,-0.6801038793343092,0.03828591108322144,0.01469486206769943,0.03441247344017029,0.0009544491767883301,-0.001859664916992188,0.005551010370254517,XArbitraryZVertical,0.07386277229300414,-0.5599451120454224,0.6316084451408955,0.5311087464546804,-0.6880881786346436,0.6288737654685974,-0.3620115220546722,0,0,0,-1,-1,61449.50048666667,unknown,2,2025-04-18T10:36:49.579+03:00,2025-04-17T15:44:39.500+03:00,7155,1.074305,0,0,5905.219,4,10,2025-04-18T10:36:49.579+03:00,766654609.6785992,0,108.39,100.5556,1,0.7,2025-04-18T10:36:45.418+03:00,109,1.816666666666667,2025-04-18T08:51:18.885+03:00,0.03057091307199995,1
2025-04-18T10:36:49.878+03:00,1744961806.632765,40.95359955957566,29.14097773549451,92.97792,-1,-1,-1,-1,30,24.65132846138212,-9999,61449.79393966667,-0.676055908203125,0.62408447265625,-0.36749267578125,61449.78386266667,1.322894179015896,-1.086113004402267,-0.6802439247749059,0.03176329657435417,-0.0120917446911335,0.03753942251205444,-0.0006899833679199219,0.0008849501609802246,-0.003806143999099731,XArbitraryZVertical,0.0738635108031537,-0.5598511966931937,0.6317959838702177,0.5309847843532924,-0.6878782510757446,0.6289826631546021,-0.3622216284275055,0,0,0,-1,-1,61449.50048666667,unknown,2,2025-04-18T10:36:49.579+03:00,2025-04-17T15:44:39.500+03:00,7155,1.074305,0,0,5905.219,4,10,2025-04-18T10:36:49.579+03:00,766654609.6785992,0,108.39,100.5556,1,0.7,2025-04-18T10:36:45.418+03:00,109,1.816666666666667,2025-04-18T08:51:18.885+03:00,0.03057091307199995,1
2025-04-18T10:36:49.888+03:00,1744961806.632765,40.95359955957566,29.14097773549451,92.97792,-1,-1,-1,-1,30,24.65132846138212,-9999,61449.80401566667,-0.6759490966796875,0.6197509765625,-0.36651611328125,61449.79393966667,1.32353828784896,-1.085873217815215,-0.6804948372388746,0.04877983033657074,-0.007633878849446774,0.03635884448885918,0.009718894958496094,-0.004299819469451904,-0.005683213472366333,XArbitraryZVertical,0.07387491549543483,-0.5598089182182571,0.6320020176115227,0.5307824184989195,-0.6876516342163086,0.6291776895523071,-0.3623129427433014,0,0,0,-1,-1,61449.50048666667,unknown,2,2025-04-18T10:36:49.579+03:00,2025-04-17T15:44:39.500+03:00,7155,1.074305,0,0,5905.219,4,10,2025-04-18T10:36:49.579+03:00,766654609.6785992,0,108.39,100.5556,1,0.7,2025-04-18T10:36:45.418+03:00,109,1.816666666666667,2025-04-18T08:51:18.885+03:00,0.03057091307199995,1
2025-04-18T10:36:49.898+03:00,1744961806.632765,40.95359955957566,29.14097773549451,92.97792,-1,-1,-1,-1,30,24.65132846138212,-9999,61449.81409266667,-0.685394287109375,0.6260986328125,-0.369110107421875,61449.80401566667,1.324244128636583,-1.08557522127751,-0.6806070607789014,0.0455835722386837,-0.01325467973947525,0.03044932521879673,0.01339364051818848,-0.009758114814758301,-0.004672020673751831,XArbitraryZVertical,0.07393662677105922,-0.5597239729071716,0.6322120232296436,0.5306132570736223,-0.687481164932251,0.6292649507522583,-0.3624849021434784,0,0,0,-1,-1,61449.50048666667,unknown,2,2025-04-18T10:36:49.579+03:00,2025-04-17T15:44:39.500+03:00,7155,1.074305,0,0,5905.219,4,10,2025-04-18T10:36:49.579+03:00,766654609.6785992,0,108.39,100.5556,1,0.7,2025-04-18T10:36:45.418+03:00,109,1.816666666666667,2025-04-18T08:51:18.885+03:00,0.03057091307199995,1
2025-04-18T10:36:49.908+03:00,1744961806.632765,40.95359955957566,29.14097773549451,92.97792,-1,-1,-1,-1,30,24.65132846138212,-9999,61449.82416866667,-0.6831207275390625,0.623260498046875,-0.3694000244140625,61449.81409266667,1.324895152219014,-1.0853710556666,-0.6807703938193105,0.03595917299389839,-0.01837966777384281,0.03692879527807236,0.002044022083282471,-0.003918826580047607,-0.007173597812652588,XArbitraryZVertical,0.07399359647458884,-0.5596751620613425,0.6324092585880986,0.5304218049891402,-0.6873162984848022,0.6293918490409851,-0.3625773191452026,0,0,0,-1,-1,61449.50048666667,unknown,2,2025-04-18T10:36:49.579+03:00,2025-04-17T15:44:39.500+03:00,7155,1.074305,0,0,5905.219,4,10,2025-04-18T10:36:49.579+03:00,766654609.6785992,0,108.39,100.5556,1,0.7,2025-04-18T10:36:45.418+03:00,109,1.816666666666667,2025-04-18T08:51:18.885+03:00,0.03057091307199995,1
2025-04-18T10:36:49.918+03:00,1744961806.632765,40.95359955957566,29.14097773549451,92.97792,-1,-1,-1,-1,30,24.65132846138212,-9999,61449.83424566667,-0.6909637451171875,0.6234893798828125,-0.371429443359375,61449.82416866667,1.325428373967762,-1.085159575313833,-0.6809552436358804,0.02506584674119949,-0.00860473420470953,0.03557141497731209,0.004138052463531494,-0.005618870258331299,-0.006182312965393066,XArbitraryZVertical,0.07400728023465304,-0.5596326767684517,0.632577687519857,0.5302639172785727,-0.687136709690094,0.6295354962348938,-0.362668365240097,0,0,0,-1,-1,61449.50048666667,unknown,2,2025-04-18T10:36:49.579+03:00,2025-04-17T15:44:39.500+03:00,7155,1.074305,0,0,5905.219,4,10,2025-04-18T10:36:49.579+03:00,766654609.6785992,0,108.39,100.5556,1,0.7,2025-04-18T10:36:45.418+03:00,109,1.816666666666667,2025-04-18T08:51:18.885+03:00,0.03057091307199995,1
2025-04-18T10:36:49.928+03:00,1744961806.632765,40.95359955957566,29.14097773549451,92.97792,-1,-1,-1,-1,30,24.65132846138212,-9999,61449.84432166667,-0.684661865234375,0.6289825439453125,-0.37042236328125,61449.83424566667,1.325878653101895,-1.085000647040496,-0.681174903819177,0.01631070487201214,0.007724171504378319,0.03849290311336517,-0.002740561962127686,-0.006872892379760742,-0.008273899555206299,XArbitraryZVertical,0.07400149140349177,-0.5596135204946084,0.6327257404188776,0.5301082028623233,-0.6869567036628723,0.6297061443328857,-0.3627129793167114,0,0,0,-1,-1,61449.50048666667,unknown,2,2025-04-18T10:36:49.579+03:00,2025-04-17T15:44:39.500+03:00,7155,1.074305,0,0,5905.219,4,10,2025-04-18T10:36:49.579+03:00,766654609.6785992,0,108.39,100.5556,1,0.7,2025-04-18T10:36:45.418+03:00,109,1.816666666666667,2025-04-18T08:51:18.885+03:00,0.03057091307199995,1
2025-04-18T10:36:49.938+03:00,1744961806.632765,40.95359955957566,29.14097773549451,92.97792,-1,-1,-1,-1,30,24.65132846138212,-9999,61449.85439866667,-0.6829071044921875,0.6299591064453125,-0.3686981201171875,61449.84432166667,1.326089662265148,-1.084725221439049,-0.6814798072702222,-0.01217999216169119,0.01174214854836464,0.03197231888771057,0.001140177249908447,-0.001357138156890869,-0.007625102996826172,XArbitraryZVertical,0.07386017796886321,-0.5595877308200611,0.6328234537135532,0.5300385824508407,-0.6866870522499084,0.6299430131912231,-0.3628124892711639,0,0,0,-1,-1,61449.50048666667,unknown,2,2025-04-18T10:36:49.579+03:00,2025-04-17T15:44:39.500+03:00,7155,1.074305,0,0,5905.219,4,10,2025-04-18T10:36:49.579+03:00,766654609.6785992,0,108.39,100.5556,1,0.7,2025-04-18T10:36:45.418+03:00,109,1.816666666666667,2025-04-18T08:51:18.885+03:00,0.03057091307199995,1
2025-04-18T10:36:49.948+03:00,1744961806.632765,40.95359955957566,29.14097773549451,92.97792,-1,-1,-1,-1,30,24.65132846138212,-9999,61449.86447466667,-0.664031982421875,0.627655029296875,-0.35614013671875,61449.85439866667,1.326130180645891,-1.084838112902434,-0.681883945778706,-0.01370278745889664,-0.02336736954748631,0.04269393905997276,0.003076910972595215,0.0002821683883666992,-0.006188809871673584,XArbitraryZVertical,0.07375722146638278,-0.559689069025729,0.6328718891156256,0.529888078674198,-0.6865028738975525,0.6302568316459656,-0.3626160323619843,0,0,0,-1,-1,61449.50048666667,unknown,2,2025-04-18T10:36:49.579+03:00,2025-04-17T15:44:39.500+03:00,7155,1.074305,0,0,5905.219,4,10,2025-04-18T10:36:49.579+03:00,766654609.6785992,0,108.39,100.5556,1,0.7,2025-04-18T10:36:45.418+03:00,109,1.816666666666667,2025-04-18T08:51:18.885+03:00,0.03057091307199995,1
2025-04-18T10:36:49.958+03:00,1744961806.632765,40.95359955957566,29.14097773549451,92.97792,-1,-1,-1,-1,30,24.65132846138212,-9999,61449.87455166667,-0.6727142333984375,0.6309814453125,-0.358642578125,61449.86447466667,1.326268569993181,-1.084897677337744,-0.6822855215640259,-0.006417310796678066,-0.003293392714112997,0.03560240566730499,0.02001017332077026,-0.001921713352203369,0.005309730768203735,XArbitraryZVertical,0.07366580716329628,-0.5597722062826931,0.6329479395480453,0.5297219481277644,-0.68630051612854,0.6305685639381409,-0.3624568581581116,0,0,0,-1,-1,61449.50048666667,unknown,2,2025-04-18T10:36:49.579+03:00,2025-04-17T15:44:39.500+03:00,7155,1.074305,0,0,5905.219,4,10,2025-04-18T10:36:49.579+03:00,766654609.6785992,0,108.39,100.5556,1,0.7,2025-04-18T10:36:45.418+03:00,109,1.816666666666667,2025-04-18T08:51:18.885+03:00,0.03057091307199995,1
2025-04-18T10:36:49.968+03:00,1744961806.632765,40.95359955957566,29.14097773549451,92.97792,-1,-1,-1,-1,30,24.65132846138212,-9999,61449.88462766667,-0.682586669921875,0.638397216796875,-0.3643341064453125,61449.87455166667,1.326454770374281,-1.084797985292524,-0.6825553390787377,0.002736240159720182,-0.01022267155349255,0.02422964572906494,0.01596313714981079,-0.0009560585021972656,0.005023986101150513,XArbitraryZVertical,0.07358616360352827,-0.559787597723213,0.6330288270990569,0.5296202310784408,-0.6861140131950378,0.6307779550552368,-0.3624458312988281,0,0,0,-1,-1,61449.50048666667,unknown,2,2025-04-18T10:36:49.579+03:00,2025-04-17T15:44:39.500+03:00,7155,1.074305,0,0,5905.219,4,10,2025-04-18T10:36:49.579+03:00,766654609.6785992,0,108.39,100.5556,1,0.7,2025-04-18T10:36:45.418+03:00,109,1.816666666666667,2025-04-18T08:51:18.885+03:00,0.03057091307199995,1
2025-04-18T10:36:49.978+03:00,1744961806.632765,40.95359955957566,29.14097773549451,92.97792,-1,-1,-1,-1,30,24.65132846138212,-9999,61449.89470466667,-0.6775665283203125,0.632171630859375,-0.3640899658203125,61449.88462766667,1.326710502662862,-1.084784919754819,-0.6826767341152336,0.01170703116804361,-0.02672927640378475,0.01731737703084946,0.002813935279846191,0.007692992687225342,-0.002235472202301025,XArbitraryZVertical,0.07360854953924893,-0.5597966262862009,0.6331095718035727,0.5295110478457742,-0.686041533946991,0.6308721303939819,-0.3624190390110016,0,0,0,-1,-1,61449.50048666667,unknown,2,2025-04-18T10:36:49.579+03:00,2025-04-17T15:44:39.500+03:00,7155,1.074305,0,0,5905.219,4,10,2025-04-18T10:36:49.579+03:00,766654609.6785992,0,108.39,100.5556,1,0.7,2025-04-18T10:36:45.418+03:00,109,1.816666666666667,2025-04-18T08:51:18.885+03:00,0.03057091307199995,1
2025-04-18T10:36:49.989+03:00,1744961806.632765,40.95359955957566,29.14097773549451,92.97792,-1,-1,-1,-1,30,24.65132846138212,-9999,61449.90478066667,-0.684844970703125,0.629852294921875,-0.3675079345703125,61449.89470466667,1.327020538978047,-1.08488021088311,-0.6826901878745714,0.01917000859975815,-0.03348837792873383,0.01020141132175922,0.009203910827636719,0.002616643905639648,-0.001373976469039917,XArbitraryZVertical,0.07372049260497079,-0.5598128567565287,0.633189524674697,0.5293827246735352,-0.686068594455719,0.6308825612068176,-0.3623497188091278,0,0,0,-1,-1,61449.50048666667,unknown,2,2025-04-18T10:36:49.579+03:00,2025-04-17T15:44:39.500+03:00,7155,1.074305,0,0,5905.219,4,10,2025-04-18T10:36:49.579+03:00,766654609.6785992,0,108.39,100.5556,1,0.7,2025-04-18T10:36:45.418+03:00,109,1.816666666666667,2025-04-18T08:51:18.885+03:00,0.03057091307199995,1
2025-04-18T10:36:49.999+03:00,1744961806.632765,40.95359955957566,29.14097773549451,92.97792,-1,-1,-1,-1,30,24.65132846138212,-9999,61449.914855625,-0.6890411376953125,0.6267852783203125,-0.368255615234375,61449.90478066667,1.327349706252656,-1.08497006166875,-0.6826108343952976,0.03107021003961563,-0.0416383184492588,0.001207982655614614,0.002276837825775146,-0.0004956722259521484,-0.004738748073577881,XArbitraryZVertical,0.07387059156029038,-0.5598101917533423,0.6332651391492166,0.529273991596659,-0.6861453056335449,0.6308209896087646,-0.3623113632202148,0,0,0,-1,-1,61449.50048666667,unknown,2,2025-04-18T10:36:49.579+03:00,2025-04-17T15:44:39.500+03:00,7155,1.074305,0,0,5905.219,4,10,2025-04-18T10:36:49.579+03:00,766654609.6785992,0,108.39,100.5556,1,0.7,2025-04-18T10:36:45.418+03:00,109,1.816666666666667,2025-04-18T08:51:18.885+03:00,0.03057091307199995,1
2025-04-18T10:36:50.014+03:00,1744961806.632765,40.95359955957566,29.14097773549451,92.97792,-1,-1,-1,-1,30,24.65132846138212,-9999,61449.92493162501,-0.6804351806640625,0.6259613037109375,-0.36322021484375,61449.914855625,1.327829161145521,-1.085159974574214,-0.6824581546150027,0.04029912501573563,-0.05461776629090309,0.007317540235817432,-0.003260672092437744,-0.003322124481201172,-0.006639838218688965,XArbitraryZVertical,0.07412154002581527,-0.5598151216834243,0.6333691936226276,0.5291092714504474,-0.6862993240356445,0.6307024955749512,-0.3622260391712189,0,0,0,-1,-1,61449.50048666667,unknown,2,2025-04-18T10:36:49.579+03:00,2025-04-17T15:44:39.500+03:00,7155,1.074305,0,0,5905.219,4,10,2025-04-18T10:36:49.579+03:00,766654609.6785992,0,108.39,100.5556,1,0.7,2025-04-18T10:36:45.418+03:00,109,1.816666666666667,2025-04-18T08:51:18.885+03:00,0.03057091307199995,1
2025-04-18T10:36:50.042+03:00,1744961806.632765,40.95359955957566,29.14097773549451,92.97792,-1,-1,-1,-1,30,24.65132846138212,-9999,61449.93500862501,-0.680206298828125,0.6240081787109375,-0.361663818359375,61449.92493162501,1.328380882645325,-1.085310731601254,-0.6823155445471056,0.04082050919532776,-0.04762836918234825,0.009185847826302052,0.004746973514556885,-0.004737317562103271,-0.001543939113616943,XArbitraryZVertical,0.07437666704808281,-0.5598087675214265,0.6334948067571848,0.5289296775583331,-0.6864334344863892,0.630591869354248,-0.3621644973754883,0,0,0,-1,-1,61449.50048666667,unknown,2,2025-04-18T10:36:49.579+03:00,2025-04-17T15:44:39.500+03:00,7155,1.074305,0,0,5905.219,4,10,2025-04-18T10:36:49.579+03:00,766654609.6785992,0,108.39,100.5556,1,0.7,2025-04-18T10:36:45.418+03:00,109,1.816666666666667,2025-04-18T08:51:18.885+03:00,0.03057091307199995,1
2025-04-18T10:36:50.045+03:00,1744961806.632765,40.95359955957566,29.14097773549451,92.97792,-1,-1,-1,-1,30,24.65132846138212,-9999,61449.945084625,-0.6796112060546875,0.6262969970703125,-0.3612060546875,61449.93500862501,1.328986287807279,-1.085318038985599,-0.6821755925610153,0.05377758666872978,-0.03203529492020607,0.008782645687460899,0.006353557109832764,-0.00563579797744751,0.001070976257324219,XArbitraryZVertical,0.07460032410949133,-0.5597628471210201,0.6336401642511612,0.5287726944894628,-0.686514139175415,0.6304832100868225,-0.3622007071971893,0,0,0,-1,-1,61449.50048666667,unknown,2,2025-04-18T10:36:49.579+03:00,2025-04-17T15:44:39.500+03:00,7155,1.074305,0,0,5905.219,4,10,2025-04-18T10:36:49.579+03:00,766654609.6785992,0,108.39,100.5556,1,0.7,2025-04-18T10:36:45.418+03:00,109,1.816666666666667,2025-04-18T08:51:18.885+03:00,0.03057091307199995,1
2025-04-18T10:36:50.047+03:00,1744961806.632765,40.95359955957566,29.14097773549451,92.97792,-1,-1,-1,-1,30,24.65132846138212,-9999,61449.955160625,-0.6808624267578125,0.62896728515625,-0.36566162109375,61449.945084625,1.329763138658776,-1.084880903161665,-0.6819946727680738,0.07312770932912827,0.01752760075032711,0.002665430773049593,0.006204485893249512,-0.004366159439086914,0.001012325286865234,XArbitraryZVertical,0.07474628732956989,-0.5595855372789973,0.633843194002349,0.5286964485757092,-0.6864566206932068,0.6303427815437317,-0.3625540435314178,0,0,0,-1,-1,61449.50048666667,unknown,2,2025-04-18T10:36:49.579+03:00,2025-04-17T15:44:39.500+03:00,7155,1.074305,0,0,5905.219,4,10,2025-04-18T10:36:49.579+03:00,766654609.6785992,0,108.39,100.5556,1,0.7,2025-04-18T10:36:45.418+03:00,109,1.816666666666667,2025-04-18T08:51:18.885+03:00,0.03057091307199995,1
2025-04-18T10:36:50.049+03:00,1744961806.632765,40.95359955957566,29.14097773549451,92.97792,-1,-1,-1,-1,30,24.65132846138212,-9999,61449.965237625,-0.6878509521484375,0.636016845703125,-0.3731536865234375,61449.955160625,1.330727708954298,-1.083953916967955,-0.6816251132094453,0.09164892882108688,0.04209206625819206,-0.009112132713198662,0.006104469299316406,-0.001271605491638184,-0.000775456428527832,XArbitraryZVertical,0.0748592776820967,-0.5592374223810102,0.6340948072688996,0.5287471154921555,-0.6863260865211487,0.630055844783783,-0.3632991909980774,0,0,0,-1,-1,61449.50048666667,unknown,2,2025-04-18T10:36:49.579+03:00,2025-04-17T15:44:39.500+03:00,7155,1.074305,0,0,5905.219,4,10,2025-04-18T10:36:49.579+03:00,766654609.6785992,0,108.39,100.5556,1,0.7,2025-04-18T10:36:45.418+03:00,109,1.816666666666667,2025-04-18T08:51:18.885+03:00,0.03057091307199995,1
2025-04-18T10:36:50.062+03:00,1744961806.632765,40.95359955957566,29.14097773549451,92.97792,-1,-1,-1,-1,30,24.65132846138212,-9999,61449.975313625,-0.685516357421875,0.638092041015625,-0.3555755615234375,61449.965237625,1.331621902006686,-1.082946079400251,-0.6811599273644587,0.06627073884010315,0.04317530617117882,-0.009825261309742928,-0.001708924770355225,0.005605161190032959,-0.00882720947265625,XArbitraryZVertical,0.07496213628948911,-0.5588529853079518,0.6343211992642133,0.52886741853255,-0.6862184405326843,0.6296945214271545,-0.3641280233860016,0,0,0,-1,-1,61449.50048666667,unknown,2,2025-04-18T10:36:49.579+03:00,2025-04-17T15:44:39.500+03:00,7155,1.074305,0,0,5905.219,4,10,2025-04-18T10:36:49.579+03:00,766654609.6785992,0,108.39,100.5556,1,0.7,2025-04-18T10:36:45.418+03:00,109,1.816666666666667,2025-04-18T08:51:18.885+03:00,0.03057091307199995,1
2025-04-18T10:36:50.080+03:00,1744961806.632765,40.95359955957566,29.14097773549451,92.97792,-1,-1,-1,-1,30,24.65132846138212,-9999,61449.98539062501,-0.67822265625,0.6337432861328125,-0.3504791259765625,61449.975313625,1.33232779182715,-1.082068067040588,-0.6808474678172282,0.06893923133611679,0.03673364967107773,-0.003192125353962183,-0.0009244084358215332,0.00944894552230835,0.006378620862960815,XArbitraryZVertical,0.07499670674943373,-0.5585374964673544,0.6345087720776432,0.5289706677157096,-0.686072051525116,0.6294517517089844,-0.3648227155208588,0,0,0,-1,-1,61449.50048666667,unknown,2,2025-04-18T10:36:49.579+03:00,2025-04-17T15:44:39.500+03:00,7155,1.074305,0,0,5905.219,4,10,2025-04-18T10:36:49.579+03:00,766654609.6785992,0,108.39,100.5556,1,0.7,2025-04-18T10:36:45.418+03:00,109,1.816666666666667,2025-04-18T08:51:18.885+03:00,0.03057091307199995,1
2025-04-18T10:36:50.081+03:00,1744961806.632765,40.95359955957566,29.14097773549451,92.97792,-1,-1,-1,-1,30,24.65132846138212,-9999,61449.99546662501,-0.6739349365234375,0.632537841796875,-0.37176513671875,61449.98539062501,1.333180636161242,-1.081215737990121,-0.6804554183319952,0.08055507391691208,0.02659732848405838,-0.006564119830727577,0.007267653942108154,0.005420207977294922,0.01699745655059814,XArbitraryZVertical,0.07510965908555436,-0.5582085938909513,0.6347262236648932,0.5290410510034035,-0.6859786510467529,0.6291470527648926,-0.3655233979225159,0,0,0,-1,-1,61449.50048666667,unknown,2,2025-04-18T10:36:49.579+03:00,2025-04-17T15:44:39.500+03:00,7155,1.074305,0,0,5905.219,4,10,2025-04-18T10:36:49.579+03:00,766654609.6785992,0,108.39,100.5556,1,0.7,2025-04-18T10:36:45.418+03:00,109,1.816666666666667,2025-04-18T08:51:18.885+03:00,0.03057091307199995,1
2025-04-18T10:36:50.089+03:00,1744961806.632765,40.95359955957566,29.14097773549451,92.97792,-1,-1,-1,-1,30,24.65132846138212,-9999,61450.005543625,-0.6777496337890625,0.630523681640625,-0.36328125,61449.99546662501,1.333931757777023,-1.080447075572305,-0.6800372520295808,0.05633681640028954,0.02296104840934277,-0.005415232386440039,0.01182663440704346,0.003380179405212402,-0.004446268081665039,XArbitraryZVertical,0.07523030785533065,-0.5579007013702181,0.6349111232929489,0.5291267210735445,-0.6859294772148132,0.6288219690322876,-0.3661744296550751,0,0,0,-1,-1,61449.50048666667,unknown,2,2025-04-18T10:36:49.579+03:00,2025-04-17T15:44:39.500+03:00,7155,1.074305,0,0,5905.219,4,10,2025-04-18T10:36:49.579+03:00,766654609.6785992,0,108.39,100.5556,1,0.7,2025-04-18T10:36:45.418+03:00,109,1.816666666666667,2025-04-18T08:51:18.885+03:00,0.03057091307199995,1
2025-04-18T10:36:50.099+03:00,1744961806.632765,40.95359955957566,29.14097773549451,92.97792,-1,-1,-1,-1,30,24.65132846138212,-9999,61450.015619625,-0.6722869873046875,0.6251373291015625,-0.349578857421875,61450.005543625,1.334403084865385,-1.080051334053424,-0.6799078180288491,0.02022708207368851,-0.002167674247175455,0.01883141882717609,0.008182883262634277,0.002260088920593262,0.0006547868251800537,XArbitraryZVertical,0.07528412319543562,-0.5577546195508716,0.6350375152244025,0.5291213397090612,-0.6858562231063843,0.6287213563919067,-0.3664841651916504,0,0,0,-1,-1,61449.50048666667,unknown,2,2025-04-18T10:36:49.579+03:00,2025-04-17T15:44:39.500+03:00,7155,1.074305,0,0,5905.219,4,10,2025-04-18T10:36:49.579+03:00,766654609.6785992,0,108.39,100.5556,1,0.7,2025-04-18T10:36:45.418+03:00,109,1.816666666666667,2025-04-18T08:51:18.885+03:00,0.03057091307199995,1
2025-04-18T10:36:50.109+03:00,1744961806.632765,40.95359955957566,29.14097773549451,92.97792,-1,-1,-1,-1,30,24.65132846138212,-9999,61450.025696625,-0.6703643798828125,0.6187896728515625,-0.353271484375,61450.015619625,1.334673877140134,-1.07991226458513,-0.6800688273910742,0.00523268710821867,-0.004037213046103716,0.02818657085299492,0.01254397630691528,-0.002869963645935059,0.01544243097305298,XArbitraryZVertical,0.07525578078036656,-0.557737074628227,0.635130781983811,0.5290319696615597,-0.6857160329818726,0.6288465261459351,-0.3665318489074707,0,0,0,-1,-1,61449.50048666667,unknown,2,2025-04-18T10:36:49.579+03:00,2025-04-17T15:44:39.500+03:00,7155,1.074305,0,0,5905.219,4,10,2025-04-18T10:36:49.579+03:00,766654609.6785992,0,108.39,100.5556,1,0.7,2025-04-18T10:36:45.418+03:00,109,1.816666666666667,2025-04-18T08:51:18.885+03:00,0.03057091307199995,1
2025-04-18T10:36:50.119+03:00,1744961806.632765,40.95359955957566,29.14097773549451,92.97792,-1,-1,-1,-1,30,24.65132846138212,-9999,61450.035772625,-0.679473876953125,0.6184234619140625,-0.37042236328125,61450.025696625,1.334977097746599,-1.079694749621056,-0.6802980460754052,0.01932806707918644,0.009885326027870178,0.03276723995804787,0.0154803991317749,-0.009731590747833252,0.01512685418128967,XArbitraryZVertical,0.07518632528196881,-0.5577100743023654,0.6352424915225309,0.5289361157890916,-0.6855090856552124,0.6290247440338135,-0.36661297082901,0,0,0,-1,-1,61449.50048666667,unknown,2,2025-04-18T10:36:49.579+03:00,2025-04-17T15:44:39.500+03:00,7155,1.074305,0,0,5905.219,4,10,2025-04-18T10:36:49.579+03:00,766654609.6785992,0,108.39,100.5556,1,0.7,2025-04-18T10:36:45.418+03:00,109,1.816666666666667,2025-04-18T08:51:18.885+03:00,0.03057091307199995,1
2025-04-18T10:36:50.129+03:00,1744961806.632765,40.95359955957566,29.14097773549451,92.97792,-1,-1,-1,-1,30,24.65132846138212,-9999,61450.04584962501,-0.6759185791015625,0.6208648681640625,-0.3746795654296875,61450.035772625,1.33551609472904,-1.079265133417066,-0.6804556674977804,0.03843704611063004,0.006157966330647469,0.0282174963504076,0.006812572479248047,-0.01104426383972168,-0.001639038324356079,XArbitraryZVertical,0.07514171952725238,-0.557605052438936,0.6354171887708671,0.5288433435388874,-0.6852641105651855,0.6291472911834717,-0.3668606579303741,0,0,0,-1,-1,61449.50048666667,unknown,2,2025-04-18T10:36:49.579+03:00,2025-04-17T15:44:39.500+03:00,7155,1.074305,0,0,5905.219,4,10,2025-04-18T10:36:49.579+03:00,766654609.6785992,0,108.39,100.5556,1,0.7,2025-04-18T10:36:45.418+03:00,109,1.816666666666667,2025-04-18T08:51:18.885+03:00,0.03057091307199995,1
2025-04-18T10:36:50.140+03:00,1744961806.632765,40.95359955957566,29.14097773549451,92.97792,-1,-1,-1,-1,30,24.65132846138212,-9999,61450.05592562501,-0.680572509765625,0.62591552734375,-0.3679351806640625,61450.04584962501,1.336282053461394,-1.078599554399184,-0.6804633634862122,0.06480254232883453,0.03373439982533455,0.02964584901928902,0.008578181266784668,-0.008486688137054443,-0.00780758261680603,XArbitraryZVertical,0.07514079817881764,-0.5574016736038864,0.6356454883616102,0.5287837278846815,-0.6850156784057617,0.6291532516479492,-0.3673144578933716,0,0,0,-1,-1,61449.50048666667,unknown,2,2025-04-18T10:36:49.579+03:00,2025-04-17T15:44:39.500+03:00,7155,1.074305,0,0,5905.219,4,10,2025-04-18T10:36:49.579+03:00,766654609.6785992,0,108.39,100.5556,1,0.7,2025-04-18T10:36:45.418+03:00,109,1.816666666666667,2025-04-18T08:51:18.885+03:00,0.03057091307199995,1
2025-04-18T10:36:50.150+03:00,1744961806.632765,40.95359955957566,29.14097773549451,92.97792,-1,-1,-1,-1,30,24.65132846138212,-9999,61450.066002625,-0.6891937255859375,0.6283721923828125,-0.3622283935546875,61450.05592562501,1.33710104182503,-1.077672692096718,-0.6804614726928345,0.05205212533473969,0.05142178386449814,0.02361192367970943,0.005964994430541992,-0.003999114036560059,-0.0001684725284576416,XArbitraryZVertical,0.07507504372494109,-0.5571255110164689,0.6358966358361069,0.5287821812625482,-0.6846760511398315,0.6291517615318298,-0.3679498136043549,0,0,0,-1,-1,61449.50048666667,unknown,2,2025-04-18T10:36:49.579+03:00,2025-04-17T15:44:39.500+03:00,7155,1.074305,0,0,5905.219,4,10,2025-04-18T10:36:49.579+03:00,766654609.6785992,0,108.39,100.5556,1,0.7,2025-04-18T10:36:45.418+03:00,109,1.816666666666667,2025-04-18T08:51:18.885+03:00,0.03057091307199995,1
2025-04-18T10:36:50.160+03:00,1744961806.632765,40.95359955957566,29.14097773549451,92.97792,-1,-1,-1,-1,30,24.65132846138212,-9999,61450.076078625,-0.68768310546875,0.6276702880859375,-0.360870361328125,61450.066002625,1.337703779244833,-1.076921914780374,-0.6805040607770887,0.04008008167147636,0.03146904706954956,0.02204621955752373,-0.0048331618309021,-0.001438260078430176,0.006527841091156006,XArbitraryZVertical,0.07498843763640854,-0.5569122378716342,0.6360884659244682,0.5287882809311452,-0.6843758821487427,0.629184901714325,-0.3684509992599487,0,0,0,-1,-1,61449.50048666667,unknown,2,2025-04-18T10:36:49.579+03:00,2025-04-17T15:44:39.500+03:00,7155,1.074305,0,0,5905.219,4,10,2025-04-18T10:36:49.579+03:00,766654609.6785992,0,108.39,100.5556,1,0.7,2025-04-18T10:36:45.418+03:00,109,1.816666666666667,2025-04-18T08:51:18.885+03:00,0.03057091307199995,1
2025-04-18T10:36:50.170+03:00,1744961806.632765,40.95359955957566,29.14097773549451,92.97792,-1,-1,-1,-1,30,24.65132846138212,-9999,61450.086155625,-0.683197021484375,0.625030517578125,-0.3628082275390625,61450.076078625,1.338298719681664,-1.076359302897965,-0.6805927276977809,0.03290685638785362,0.005136244464665651,0.02761994861066341,-0.004082620143890381,-0.001110494136810303,0.00813746452331543,XArbitraryZVertical,0.07494229482518808,-0.5567575067334666,0.6362757774995276,0.5287323314071712,-0.6841193437576294,0.6292538046836853,-0.3688094615936279,0,0,0,-1,-1,61449.50048666667,unknown,2,2025-04-18T10:36:49.579+03:00,2025-04-17T15:44:39.500+03:00,7155,1.074305,0,0,5905.219,4,10,2025-04-18T10:36:49.579+03:00,766654609.6785992,0,108.39,100.5556,1,0.7,2025-04-18T10:36:45.418+03:00,109,1.816666666666667,2025-04-18T08:51:18.885+03:00,0.03057091307199995,1
2025-04-18T10:36:50.180+03:00,1744961806.632765,40.95359955957566,29.14097773549451,92.97792,-1,-1,-1,-1,30,24.65132846138212,-9999,61450.096231625,-0.6851043701171875,0.6256561279296875,-0.3629913330078125,61450.086155625,1.338790169501312,-1.076071715662457,-0.6806804177737624,0.02718459069728851,-0.009073784574866295,0.02213333733379841,0.0007218122482299805,-0.004947543144226074,0.006019234657287598,XArbitraryZVertical,0.07495509376016986,-0.5566792011364274,0.6364252798781204,0.5286330526413281,-0.6839646697044373,0.6293219327926636,-0.3689799904823303,0,0,0,-1,-1,61449.50048666667,unknown,2,2025-04-18T10:36:49.579+03:00,2025-04-17T15:44:39.500+03:00,7155,1.074305,0,0,5905.219,4,10,2025-04-18T10:36:49.579+03:00,766654609.6785992,0,108.39,100.5556,1,0.7,2025-04-18T10:36:45.418+03:00,109,1.816666666666667,2025-04-18T08:51:18.885+03:00,0.03057091307199995,1
2025-04-18T10:36:50.190+03:00,1744961806.632765,40.95359955957566,29.14097773549451,92.97792,-1,-1,-1,-1,30,24.65132846138212,-9999,61450.10630862501,-0.6827392578125,0.6253662109375,-0.36370849609375,61450.096231625,1.339173589649462,-1.076006347985362,-0.6807944509228022,0.01932267285883427,-0.01460863091051579,0.02490808442234993,-0.000845491886138916,-0.00369340181350708,0.006426632404327393,XArbitraryZVertical,0.07499875344912486,-0.5566685404243532,0.6365405124332987,0.5284993644782404,-0.6838774085044861,0.6294105648994446,-0.3689906597137451,0,0,0,-1,-1,61449.50048666667,unknown,2,2025-04-18T10:36:49.579+03:00,2025-04-17T15:44:39.500+03:00,7155,1.074305,0,0,5905.219,4,10,2025-04-18T10:36:49.579+03:00,766654609.6785992,0,108.39,100.5556,1,0.7,2025-04-18T10:36:45.418+03:00,109,1.816666666666667,2025-04-18T08:51:18.885+03:00,0.03057091307199995,1
2025-04-18T10:36:50.200+03:00,1744961806.632765,40.95359955957566,29.14097773549451,92.97792,-1,-1,-1,-1,30,24.65132846138212,-9999,61450.11638462501,-0.6834259033203125,0.6250457763671875,-0.3682708740234375,61450.10630862501,1.339472054137014,-1.075979521169455,-0.6809900153015913,0.007707829587161541,-0.01709815301001072,0.03013533726334572,0.001096189022064209,-0.004165768623352051,0.005028426647186279,XArbitraryZVertical,0.0750008583231086,-0.5566862761374064,0.6366400043366899,0.5283604991178538,-0.6837591528892517,0.6295624971389771,-0.3689505159854889,0,0,0,-1,-1,61449.50048666667,unknown,2,2025-04-18T10:36:49.579+03:00,2025-04-17T15:44:39.500+03:00,7155,1.074305,0,0,5905.219,4,10,2025-04-18T10:36:49.579+03:00,766654609.6785992,0,108.39,100.5556,1,0.7,2025-04-18T10:36:45.418+03:00,109,1.816666666666667,2025-04-18T08:51:18.885+03:00,0.03057091307199995,1
2025-04-18T10:36:50.210+03:00,1744961806.632765,40.95359955957566,29.14097773549451,92.97792,-1,-1,-1,-1,30,24.65132846138212,-9999,61450.126461625,-0.6753692626953125,0.6280364990234375,-0.362762451171875,61450.11638462501,1.339707592870275,-1.076129118059126,-0.681274679005434,-0.006977639626711607,-0.0409957654774189,0.03857409954071045,0.0003527998924255371,-0.00489044189453125,0.0008280277252197266,XArbitraryZVertical,0.07500856589092658,-0.5567693646424076,0.6367251512073275,0.5281693250735078,-0.6836566925048828,0.6297836899757385,-0.3687631785869598,0,0,0,-1,-1,61449.50048666667,unknown,2,2025-04-18T10:36:49.579+03:00,2025-04-17T15:44:39.500+03:00,7155,1.074305,0,0,5905.219,4,10,2025-04-18T10:36:49.579+03:00,766654609.6785992,0,108.39,100.5556,1,0.7,2025-04-18T10:36:45.418+03:00,109,1.816666666666667,2025-04-18T08:51:18.885+03:00,0.03057091307199995,1
2025-04-18T10:36:50.220+03:00,1744961806.632765,40.95359955957566,29.14097773549451,92.97792,-1,-1,-1,-1,30,24.65132846138212,-9999,61450.136537625,-0.682098388671875,0.6261138916015625,-0.3656463623046875,61450.126461625,1.339883303748638,-1.076419177077217,-0.6816508070864379,-0.01305723749101162,-0.04204651340842247,0.0436892956495285,0.007132887840270996,-0.002329170703887939,0.005735814571380615,XArbitraryZVertical,0.07501052075691424,-0.5569086072587662,0.6367983717757121,0.5279339394887927,-0.6835550665855408,0.6300758123397827,-0.3684524595737457,0,0,0,-1,-1,61449.50048666667,unknown,2,2025-04-18T10:36:49.579+03:00,2025-04-17T15:44:39.500+03:00,7155,1.074305,0,0,5905.219,4,10,2025-04-18T10:36:49.579+03:00,766654609.6785992,0,108.39,100.5556,1,0.7,2025-04-18T10:36:45.418+03:00,109,1.816666666666667,2025-04-18T08:51:18.885+03:00,0.03057091307199995,1
2025-04-18T10:36:50.231+03:00,1744961806.632765,40.95359955957566,29.14097773549451,92.97792,-1,-1,-1,-1,30,24.65132846138212,-9999,61450.146614625,-0.69671630859375,0.6239166259765625,-0.3703765869140625,61450.136537625,1.339974838343288,-1.076748091703209,-0.6820934311750869,-0.01729326136410236,-0.03583069518208504,0.03971372917294502,0.002857983112335205,-0.004000306129455566,0.003745943307876587,XArbitraryZVertical,0.0749768238209098,-0.5570734436714123,0.636854559495151,0.5276969678560347,-0.6834306120872498,0.6304194331169128,-0.3680953085422516,0,0,0,-1,-1,61449.50048666667,unknown,2,2025-04-18T10:36:49.579+03:00,2025-04-17T15:44:39.500+03:00,7155,1.074305,0,0,5905.219,4,10,2025-04-18T10:36:49.579+03:00,766654609.6785992,0,108.39,100.5556,1,0.7,2025-04-18T10:36:45.418+03:00,109,1.816666666666667,2025-04-18T08:51:18.885+03:00,0.03057091307199995,1
2025-04-18T10:36:50.241+03:00,1744961806.632765,40.95359955957566,29.14097773549451,92.97792,-1,-1,-1,-1,30,24.65132846138212,-9999,61450.156690625,-0.702850341796875,0.6245269775390625,-0.3745880126953125,61450.146614625,1.339950989331171,-1.077013252627207,-0.6825369520439788,-0.02018725126981735,-0.007896467112004757,0.03685246035456657,-0.01212227344512939,-0.006374001502990723,-0.002884984016418457,XArbitraryZVertical,0.07489040455803897,-0.5572258879243646,0.6368827835598797,0.5275140821167602,-0.6832818388938904,0.6307636499404907,-0.3677814602851868,0,0,0,-1,-1,61449.50048666667,unknown,2,2025-04-18T10:36:49.579+03:00,2025-04-17T15:44:39.500+03:00,7155,1.074305,0,0,5905.219,4,10,2025-04-18T10:36:49.579+03:00,766654609.6785992,0,108.39,100.5556,1,0.7,2025-04-18T10:36:45.418+03:00,109,1.816666666666667,2025-04-18T08:51:18.885+03:00,0.03057091307199995,1
2025-04-18T10:36:50.251+03:00,1744961806.632765,40.95359955957566,29.14097773549451,92.97792,-1,-1,-1,-1,30,24.65132846138212,-9999,61450.16676762501,-0.6937713623046875,0.6253509521484375,-0.3726959228515625,61450.156690625,1.339859397184461,-1.077086124325226,-0.6829948795046562,-0.02578228525817394,0.006520023103803396,0.04277666285634041,-0.01956725120544434,-0.007171750068664551,-0.00638282299041748,XArbitraryZVertical,0.07471846915502399,-0.5573327156558202,0.6369017716040828,0.52740274003871,-0.6830542683601379,0.6311189532279968,-0.3675947785377502,0,0,0,-1,-1,61449.50048666667,unknown,2,2025-04-18T10:36:49.579+03:00,2025-04-17T15:44:39.500+03:00,7155,1.074305,0,0,5905.219,4,10,2025-04-18T10:36:49.579+03:00,766654609.6785992,0,108.39,100.5556,1,0.7,2025-04-18T10:36:45.418+03:00,109,1.816666666666667,2025-04-18T08:51:18.885+03:00,0.03057091307199995,1
2025-04-18T10:36:50.261+03:00,1744961806.632765,40.95359955957566,29.14097773549451,92.97792,-1,-1,-1,-1,30,24.65132846138212,-9999,61450.17684362501,-0.6906585693359375,0.6232147216796875,-0.3714752197265625,61450.16676762501,1.339834008702675,-1.077013140287849,-0.6834555204950832,-0.02329256385564804,0.01550546288490295,0.04261937364935875,-0.01193082332611084,-0.005240142345428467,-0.005448490381240845,XArbitraryZVertical,0.0745175278700929,-0.5573990692091799,0.6369439120656628,0.5273101956197663,-0.6827713847160339,0.6314761638641357,-0.3675068318843842,0,0,0,-1,-1,61449.50048666667,unknown,2,2025-04-18T10:36:49.579+03:00,2025-04-17T15:44:39.500+03:00,7155,1.074305,0,0,5905.219,4,10,2025-04-18T10:36:49.579+03:00,766654609.6785992,0,108.39,100.5556,1,0.7,2025-04-18T10:36:45.418+03:00,109,1.816666666666667,2025-04-18T08:51:18.885+03:00,0.03057091307199995,1
2025-04-18T10:36:50.271+03:00,1744961806.632765,40.95359955957566,29.14097773549451,92.97792,-1,-1,-1,-1,30,24.65132846138212,-9999,61450.186920625,-0.697418212890625,0.6267242431640625,-0.37286376953125,61450.17684362501,1.339848672806897,-1.076827603633988,-0.6838825531640798,-0.01446445100009441,0.02748089842498302,0.03678997978568077,-0.007582545280456543,-0.009370684623718262,-0.004061102867126465,XArbitraryZVertical,0.07430435117249033,-0.5574280666256929,0.63699738966914,0.5272450463810542,-0.6824657320976257,0.631807267665863,-0.3675056397914886,0,0,0,-1,-1,61449.50048666667,unknown,2,2025-04-18T10:36:49.579+03:00,2025-04-17T15:44:39.500+03:00,7155,1.074305,0,0,5905.219,4,10,2025-04-18T10:36:49.579+03:00,766654609.6785992,0,108.39,100.5556,1,0.7,2025-04-18T10:36:45.418+03:00,109,1.816666666666667,2025-04-18T08:51:18.885+03:00,0.03057091307199995,1
2025-04-18T10:36:50.281+03:00,1744961806.632765,40.95359955957566,29.14097773549451,92.97792,-1,-1,-1,-1,30,24.65132846138212,-9999,61450.196996625,-0.6880340576171875,0.6239013671875,-0.3692626953125,61450.186920625,1.339861351598466,-1.076528808701228,-0.6842625326567766,-0.0203925147652626,0.03174315392971039,0.03528469428420067,-0.0154111385345459,-0.005743682384490967,-0.004947662353515625,XArbitraryZVertical,0.07407198953056271,-0.5574186417478857,0.6370497796849531,0.5272243634993136,-0.6821444630622864,0.6321017146110535,-0.3675955832004547,0,0,0,-1,-1,61449.50048666667,unknown,2,2025-04-18T10:36:49.579+03:00,2025-04-17T15:44:39.500+03:00,7155,1.074305,0,0,5905.219,4,10,2025-04-18T10:36:49.579+03:00,766654609.6785992,0,108.39,100.5556,1,0.7,2025-04-18T10:36:45.418+03:00,109,1.816666666666667,2025-04-18T08:51:18.885+03:00,0.03057091307199995,1
2025-04-18T10:36:50.291+03:00,1744961806.632765,40.95359955957566,29.14097773549451,92.97792,-1,-1,-1,-1,30,24.65132846138212,-9999,61450.207072625,-0.687591552734375,0.62164306640625,-0.3679046630859375,61450.196996625,1.339833909739893,-1.076139754865394,-0.6846388271160836,-0.01617193780839443,0.05071498081088066,0.03284071013331413,-0.007218718528747559,-0.007927298545837402,-0.002720117568969727,XArbitraryZVertical,0.07380104699786669,-0.557386228882124,0.6370944783952948,0.5272425634687755,-0.6817919611930847,0.6323933005332947,-0.3677479922771454,0,0,0,-1,-1,61449.50048666667,unknown,2,2025-04-18T10:36:49.579+03:00,2025-04-17T15:44:39.500+03:00,7155,1.074305,0,0,5905.219,4,10,2025-04-18T10:36:49.579+03:00,766654609.6785992,0,108.39,100.5556,1,0.7,2025-04-18T10:36:45.418+03:00,109,1.816666666666667,2025-04-18T08:51:18.885+03:00,0.03057091307199995,1
2025-04-18T10:36:50.301+03:00,1744961806.632765,40.95359955957566,29.14097773549451,92.97792,-1,-1,-1,-1,30,24.65132846138212,-9999,61450.217149625,-0.6828460693359375,0.620147705078125,-0.371826171875,61450.207072625,1.339885266424326,-1.075589022480479,-0.6849802262672704,-0.01311629265546799,0.05120280757546425,0.02902236953377724,-0.005871772766113281,-0.01087725162506104,0.0006808042526245117,XArbitraryZVertical,0.07351341462062823,-0.5573018576840215,0.6371623119868443,0.5272900354014638,-0.681399405002594,0.6326577067375183,-0.3680208325386047,0,0,0,-1,-1,61449.50048666667,unknown,2,2025-04-18T10:36:49.579+03:00,2025-04-17T15:44:39.500+03:00,7155,1.074305,0,0,5905.219,4,10,2025-04-18T10:36:49.579+03:00,766654609.6785992,0,108.39,100.5556,1,0.7,2025-04-18T10:36:45.418+03:00,109,1.816666666666667,2025-04-18T08:51:18.885+03:00,0.03057091307199995,1
2025-04-18T10:36:50.311+03:00,1744961806.632765,40.95359955957566,29.14097773549451,92.97792,-1,-1,-1,-1,30,24.65132846138212,-9999,61450.22722562501,-0.6748046875,0.6194610595703125,-0.367401123046875,61450.217149625,1.339809402567293,-1.07513605529658,-0.6853247661656212,-0.02886329777538776,0.04990877583622932,0.02846070751547813,-0.003377020359039307,-0.01260888576507568,-0.004515945911407471,XArbitraryZVertical,0.07322036243362466,-0.557248529345488,0.6371932104029415,0.5273497220834641,-0.6810407638549805,0.632924497127533,-0.3682257235050201,0,0,0,-1,-1,61449.50048666667,unknown,2,2025-04-18T10:36:49.579+03:00,2025-04-17T15:44:39.500+03:00,7155,1.074305,0,0,5905.219,4,10,2025-04-18T10:36:49.579+03:00,766654609.6785992,0,108.39,100.5556,1,0.7,2025-04-18T10:36:45.418+03:00,109,1.816666666666667,2025-04-18T08:51:18.885+03:00,0.03057091307199995,1
2025-04-18T10:36:50.321+03:00,1744961806.632765,40.95359955957566,29.14097773549451,92.97792,-1,-1,-1,-1,30,24.65132846138212,-9999,61450.23730262501,-0.672332763671875,0.6238555908203125,-0.3672027587890625,61450.22722562501,1.339568151813087,-1.075020123871385,-0.6856603795802005,-0.03824774548411369,0.01020663697272539,0.02800837159156799,0.005823314189910889,-0.01357060670852661,0.0005736351013183594,XArbitraryZVertical,0.07299186316902941,-0.5572884316435323,0.6371671972879887,0.5273706461956094,-0.6808111667633057,0.6331843137741089,-0.3682035803794861,0,0,0,-1,-1,61449.50048666667,unknown,2,2025-04-18T10:36:49.579+03:00,2025-04-17T15:44:39.500+03:00,7155,1.074305,0,0,5905.219,4,10,2025-04-18T10:36:49.579+03:00,766654609.6785992,0,108.39,100.5556,1,0.7,2025-04-18T10:36:45.418+03:00,109,1.816666666666667,2025-04-18T08:51:18.885+03:00,0.03057091307199995,1
2025-04-18T10:36:50.331+03:00,1744961806.632765,40.95359955957566,29.14097773549451,92.97792,-1,-1,-1,-1,30,24.65132846138212,-9999,61450.247378625,-0.669097900390625,0.623992919921875,-0.36993408203125,61450.23730262501,1.339251429053497,-1.075149007883223,-0.6859867580490437,-0.04084379225969315,0.008231636136770248,0.02291827090084553,0.008145630359649658,-0.009779632091522217,0.0003876090049743652,XArbitraryZVertical,0.07282369341450945,-0.5573938740075532,0.6371114199820317,0.5273499180616317,-0.6806768178939819,0.6334368586540222,-0.3680175542831421,0,0,0,-1,-1,61449.50048666667,unknown,2,2025-04-18T10:36:49.579+03:00,2025-04-17T15:44:39.500+03:00,7155,1.074305,0,0,5905.219,4,10,2025-04-18T10:36:49.579+03:00,766654609.6785992,0,108.39,100.5556,1,0.7,2025-04-18T10:36:45.418+03:00,109,1.816666666666667,2025-04-18T08:51:18.885+03:00,0.03057091307199995,1
2025-04-18T10:36:50.342+03:00,1744961806.632765,40.95359955957566,29.14097773549451,92.97792,-1,-1,-1,-1,30,24.65132846138212,-9999,61450.257455625,-0.6734619140625,0.6227874755859375,-0.3702392578125,61450.247378625,1.338924325306152,-1.075251667470961,-0.6863227135807605,-0.03848157078027725,0.01605174317955971,0.02094673365354538,0.01164305210113525,-0.009566426277160645,-0.002209573984146118,XArbitraryZVertical,0.07264068079569078,-0.5574944622230672,0.6370548262250015,0.5273373150645054,-0.6805274486541748,0.6336967945098877,-0.3678465187549591,0,0,0,-1,-1,61449.50048666667,unknown,2,2025-04-18T10:36:49.579+03:00,2025-04-17T15:44:39.500+03:00,7155,1.074305,0,0,5905.219,4,10,2025-04-18T10:36:49.579+03:00,766654609.6785992,0,108.39,100.5556,1,0.7,2025-04-18T10:36:45.418+03:00,109,1.816666666666667,2025-04-18T08:51:18.885+03:00,0.03057091307199995,1
2025-04-18T10:36:50.351+03:00,1744961806.632765,40.95359955957566,29.14097773549451,92.97792,-1,-1,-1,-1,30,24.65132846138212,-9999,61450.267531625,-0.670440673828125,0.624114990234375,-0.3663787841796875,61450.257455625,1.33861841261813,-1.075236272459703,-0.6866160865956459,-0.03677581623196602,0.02439409494400024,0.02006922289729118,0.007292807102203369,-0.01023602485656738,-0.003233641386032104,XArbitraryZVertical,0.07244187432197231,-0.5575553276251034,0.6370038988851683,0.5273615762437422,-0.6803580522537231,0.6339237093925476,-0.3677684664726257,0,0,0,-1,-1,61449.50048666667,unknown,2,2025-04-18T10:36:49.579+03:00,2025-04-17T15:44:39.500+03:00,7155,1.074305,0,0,5905.219,4,10,2025-04-18T10:36:49.579+03:00,766654609.6785992,0,108.39,100.5556,1,0.7,2025-04-18T10:36:45.418+03:00,109,1.816666666666667,2025-04-18T08:51:18.885+03:00,0.03057091307199995,1
2025-04-18T10:36:50.361+03:00,1744961806.632765,40.95359955957566,29.14097773549451,92.97792,-1,-1,-1,-1,30,24.65132846138212,-9999,61450.277608625,-0.6653594970703125,0.6259613037109375,-0.36260986328125,61450.267531625,1.338317063395431,-1.075233333149649,-0.6869214027306653,-0.0376490019261837,0.01484726183116436,0.02221696078777313,0.008525311946868896,-0.01030427217483521,0.0001858174800872803,XArbitraryZVertical,0.07224374987044715,-0.5576214047099239,0.6369548879751541,0.5273781140255006,-0.6801866888999939,0.6341598033905029,-0.3676784336566925,0,0,0,-1,-1,61449.50048666667,unknown,2,2025-04-18T10:36:49.579+03:00,2025-04-17T15:44:39.500+03:00,7155,1.074305,0,0,5905.219,4,10,2025-04-18T10:36:49.579+03:00,766654609.6785992,0,108.39,100.5556,1,0.7,2025-04-18T10:36:45.418+03:00,109,1.816666666666667,2025-04-18T08:51:18.885+03:00,0.03057091307199995,1
2025-04-18T10:36:50.372+03:00,1744961806.632765,40.95359955957566,29.14097773549451,92.97792,-1,-1,-1,-1,30,24.65132846138212,-9999,61450.287684625,-0.6646881103515625,0.6260223388671875,-0.359832763671875,61450.277608625,1.3380529167777,-1.075374722600631,-0.6872372404693461,-0.03178977966308594,-0.008303064852952957,0.02332430332899094,0.01433670520782471,-0.008030712604522705,0.004358440637588501,XArbitraryZVertical,0.0720980414949061,-0.5577260652113037,0.6369115257875229,0.5273397750571928,-0.6800624132156372,0.6344040036201477,-0.3674870133399963,0,0,0,-1,-1,61449.50048666667,unknown,2,2025-04-18T10:36:49.579+03:00,2025-04-17T15:44:39.500+03:00,7155,1.074305,0,0,5905.219,4,10,2025-04-18T10:36:49.579+03:00,766654609.6785992,0,108.39,100.5556,1,0.7,2025-04-18T10:36:45.418+03:00,109,1.816666666666667,2025-04-18T08:51:18.885+03:00,0.03057091307199995,1
2025-04-18T10:36:50.382+03:00,1744961806.632765,40.95359955957566,29.14097773549451,92.97792,-1,-1,-1,-1,30,24.65132846138212,-9999,61450.29776162501,-0.668975830078125,0.6265106201171875,-0.3602142333984375,61450.287684625,1.337902337149381,-1.075618297145624,-0.6875104312242664,-0.01822450198233128,-0.01766867004334927,0.02796283178031445,0.01502132415771484,-0.008089244365692139,0.006963789463043213,XArbitraryZVertical,0.07203234253791917,-0.5578457186279928,0.6368902061600257,0.5272479362278616,-0.6799994111061096,0.6346151232719421,-0.3672389984130859,0,0,0,-1,-1,61449.50048666667,unknown,2,2025-04-18T10:36:49.579+03:00,2025-04-17T15:44:39.500+03:00,7155,1.074305,0,0,5905.219,4,10,2025-04-18T10:36:49.579+03:00,766654609.6785992,0,108.39,100.5556,1,0.7,2025-04-18T10:36:45.418+03:00,109,1.816666666666667,2025-04-18T08:51:18.885+03:00,0.03057091307199995,1
2025-04-18T10:36:50.392+03:00,1744961806.632765,40.95359955957566,29.14097773549451,92.97792,-1,-1,-1,-1,30,24.65132846138212,-9999,61450.30783762501,-0.678558349609375,0.629486083984375,-0.36505126953125,61450.29776162501,1.337887496593686,-1.075822018662075,-0.6877836203902713,-0.01736829616129398,-0.01303956285119057,0.03024995513260365,0.01114416122436523,-0.008620798587799072,0.006407201290130615,XArbitraryZVertical,0.07199179408128294,-0.5579499348232715,0.6369061161573812,0.5271240057867222,-0.6799216270446777,0.6348262429237366,-0.3670181035995483,0,0,0,-1,-1,61449.50048666667,unknown,2,2025-04-18T10:36:49.579+03:00,2025-04-17T15:44:39.500+03:00,7155,1.074305,0,0,5905.219,4,10,2025-04-18T10:36:49.579+03:00,766654609.6785992,0,108.39,100.5556,1,0.7,2025-04-18T10:36:45.418+03:00,109,1.816666666666667,2025-04-18T08:51:18.885+03:00,0.03057091307199995,1
2025-04-18T10:36:50.402+03:00,1744961806.632765,40.95359955957566,29.14097773549451,92.97792,-1,-1,-1,-1,30,24.65132846138212,-9999,61450.317914625,-0.6953125,0.6307373046875,-0.3754119873046875,61450.30783762501,1.337819843855961,-1.075833101720623,-0.6881279677918813,-0.02926097437739372,0.02289546653628349,0.03329497575759888,0.0037384033203125,-0.006140232086181641,0.00303041934967041,XArbitraryZVertical,0.07184879461176388,-0.558018271584185,0.6369221124331297,0.5270518644412205,-0.6797333359718323,0.6350922584533691,-0.3669067323207855,0,0,0,-1,-1,61449.50048666667,unknown,2,2025-04-18T10:36:49.579+03:00,2025-04-17T15:44:39.500+03:00,7155,1.074305,0,0,5905.219,4,10,2025-04-18T10:36:49.579+03:00,766654609.6785992,0,108.39,100.5556,1,0.7,2025-04-18T10:36:45.418+03:00,109,1.816666666666667,2025-04-18T08:51:18.885+03:00,0.03057091307199995,1
2025-04-18T10:36:50.412+03:00,1744961806.632765,40.95359955957566,29.14097773549451,92.97792,-1,-1,-1,-1,30,24.65132846138212,-9999,61450.327990625,-0.6940460205078125,0.62890625,-0.374725341796875,61450.317914625,1.337704951091865,-1.075598573070378,-0.6885869287405322,-0.03550342470407486,0.02937334030866623,0.04235744848847389,-0.01352620124816895,-0.004785656929016113,-0.007217884063720703,XArbitraryZVertical,0.07157189694656933,-0.5580445082048547,0.6369458273206264,0.5270331208293413,-0.6793907284736633,0.6354467272758484,-0.3669275939464569,0,0,0,-1,-1,61449.50048666667,unknown,2,2025-04-18T10:36:49.579+03:00,2025-04-17T15:44:39.500+03:00,7155,1.074305,0,0,5905.219,4,10,2025-04-18T10:36:49.579+03:00,766654609.6785992,0,108.39,100.5556,1,0.7,2025-04-18T10:36:45.418+03:00,109,1.816666666666667,2025-04-18T08:51:18.885+03:00,0.03057091307199995,1
2025-04-18T10:36:50.422+03:00,1744961806.632765,40.95359955957566,29.14097773549451,92.97792,-1,-1,-1,-1,30,24.65132846138212,-9999,61450.338067625,-0.6800689697265625,0.6294403076171875,-0.368133544921875,61450.327990625,1.337579258550685,-1.07542368098182,-0.6891925913803219,-0.04589394479990005,0.0186627060174942,0.05483465641736984,-0.01594328880310059,-0.007206380367279053,-0.008624851703643799,XArbitraryZVertical,0.07125658582561686,-0.5581136211772146,0.6369790427790231,0.5269624930908142,-0.6789878010749817,0.6359142661094666,-0.3668633699417114,0,0,0,-1,-1,61449.50048666667,unknown,2,2025-04-18T10:36:49.579+03:00,2025-04-17T15:44:39.500+03:00,7155,1.074305,0,0,5905.219,4,10,2025-04-18T10:36:49.579+03:00,766654609.6785992,0,108.39,100.5556,1,0.7,2025-04-18T10:36:45.418+03:00,109,1.816666666666667,2025-04-18T08:51:18.885+03:00,0.03057091307199995,1
2025-04-18T10:36:50.432+03:00,1744961806.632765,40.95359955957566,29.14097773549451,92.97792,-1,-1,-1,-1,30,24.65132846138212,-9999,61450.348143625,-0.6820068359375,0.63153076171875,-0.3683624267578125,61450.338067625,1.337404055156247,-1.075331117483429,-0.6899560953456438,-0.05568106099963188,0.01840411312878132,0.06694378703832626,-0.001954555511474609,-0.007139265537261963,-0.001758694648742676,XArbitraryZVertical,0.07089515233210049,-0.5582349495693673,0.6370118418227663,0.5268429787790522,-0.6785264015197754,0.6365033388137817,-0.3666952252388,0,0,0,-1,-1,61449.50048666667,unknown,2,2025-04-18T10:36:49.579+03:00,2025-04-17T15:44:39.500+03:00,7155,1.074305,0,0,5905.219,4,10,2025-04-18T10:36:49.579+03:00,766654609.6785992,0,108.39,100.5556,1,0.7,2025-04-18T10:36:45.418+03:00,109,1.816666666666667,2025-04-18T08:51:18.885+03:00,0.03057091307199995,1
2025-04-18T10:36:50.442+03:00,1744961806.632765,40.95359955957566,29.14097773549451,92.97792,-1,-1,-1,-1,30,24.65132846138212,-9999,61450.35822062501,-0.68426513671875,0.6261749267578125,-0.366546630859375,61450.348143625,1.337163891274314,-1.075289050672977,-0.6908530118085505,-0.0679059699177742,0.01335402764379978,0.07597686350345612,-0.003769457340240479,-0.00479435920715332,-0.001315087080001831,XArbitraryZVertical,0.0704821011641248,-0.5583960690377923,0.6370388480680496,0.5266950291354849,-0.6780085563659668,0.637194812297821,-0.3664522171020508,0,0,0,-1,-1,61449.50048666667,unknown,2,2025-04-18T10:36:49.579+03:00,2025-04-17T15:44:39.500+03:00,7155,1.074305,0,0,5905.219,4,10,2025-04-18T10:36:49.579+03:00,766654609.6785992,0,108.39,100.5556,1,0.7,2025-04-18T10:36:45.418+03:00,109,1.816666666666667,2025-04-18T08:51:18.885+03:00,0.03057091307199995,1
2025-04-18T10:36:50.452+03:00,1744961806.632765,40.95359955957566,29.14097773549451,92.97792,-1,-1,-1,-1,30,24.65132846138212,-9999,61450.36829662501,-0.6763458251953125,0.62188720703125,-0.36431884765625,61450.35822062501,1.336776493721997,-1.075415199449806,-0.691899737233879,-0.08410704880952835,0.007123295683413744,0.07674012333154678,-0.007468938827514648,-0.0113532543182373,-0.0008938610553741455,XArbitraryZVertical,0.07002591382917533,-0.5586337467166318,0.637035910517824,0.5265073560536516,-0.6774675846099854,0.6380012035369873,-0.3660494089126587,0,0,0,-1,-1,61449.50048666667,unknown,2,2025-04-18T10:36:49.579+03:00,2025-04-17T15:44:39.500+03:00,7155,1.074305,0,0,5905.219,4,10,2025-04-18T10:36:49.579+03:00,766654609.6785992,0,108.39,100.5556,1,0.7,2025-04-18T10:36:45.418+03:00,109,1.816666666666667,2025-04-18T08:51:18.885+03:00,0.03057091307199995,1
2025-04-18T10:36:50.463+03:00,1744961806.632765,40.95359955957566,29.14097773549451,92.97792,-1,-1,-1,-1,30,24.65132846138212,-9999,61450.378373625,-0.672821044921875,0.61614990234375,-0.3624267578125,61450.36829662501,1.336323941955969,-1.075673113519117,-0.6930511271794151,-0.08691488206386566,0.0002043363638222218,0.0912037193775177,-0.001215934753417969,-0.01588624715805054,0.001343965530395508,XArbitraryZVertical,0.06955456366553715,-0.5589270614386751,0.637021547638726,0.5262758772556716,-0.676915168762207,0.6388874053955078,-0.3655253946781158,0,0,0,-1,-1,61449.50048666667,unknown,2,2025-04-18T10:36:49.579+03:00,2025-04-17T15:44:39.500+03:00,7155,1.074305,0,0,5905.219,4,10,2025-04-18T10:36:49.579+03:00,766654609.6785992,0,108.39,100.5556,1,0.7,2025-04-18T10:36:45.418+03:00,109,1.816666666666667,2025-04-18T08:51:18.885+03:00,0.03057091307199995,1
2025-04-18T10:36:50.473+03:00,1744961806.632765,40.95359955957566,29.14097773549451,92.97792,-1,-1,-1,-1,30,24.65132846138212,-9999,61450.388449625,-0.6879425048828125,0.62030029296875,-0.3642730712890625,61450.378373625,1.335865858178491,-1.075996197756953,-0.6942198754988751,-0.08594655245542526,-0.003585607744753361,0.08045653253793716,0.00387495756149292,-0.02302587032318115,0.003181308507919312,XArbitraryZVertical,0.06909588683936015,-0.5592404129513907,0.6370052213451245,0.5260230542372105,-0.6763755679130554,0.6397860646247864,-0.3649518489837646,0,0,0,-1,-1,61449.50048666667,unknown,2,2025-04-18T10:36:49.579+03:00,2025-04-17T15:44:39.500+03:00,7155,1.074305,0,0,5905.219,4,10,2025-04-18T10:36:49.579+03:00,766654609.6785992,0,108.39,100.5556,1,0.7,2025-04-18T10:36:45.418+03:00,109,1.816666666666667,2025-04-18T08:51:18.885+03:00,0.03057091307199995,1
2025-04-18T10:36:50.483+03:00,1744961806.632765,40.95359955957566,29.14097773549451,92.97792,-1,-1,-1,-1,30,24.65132846138212,-9999,61450.398526625,-0.6943359375,0.625091552734375,-0.364471435546875,61450.388449625,1.335345597076431,-1.076353701278717,-0.6952287631140394,-0.08252985030412674,0.001754429424181581,0.06480719894170761,-0.01014333963394165,-0.02132892608642578,0.0008476972579956055,XArbitraryZVertical,0.06868988154135473,-0.5595354424310066,0.6369556412631084,0.525822627259787,-0.6759375929832458,0.6405611038208008,-0.3644035756587982,0,0,0,-1,-1,61449.50048666667,unknown,2,2025-04-18T10:36:49.579+03:00,2025-04-17T15:44:39.500+03:00,7155,1.074305,0,0,5905.219,4,10,2025-04-18T10:36:49.579+03:00,766654609.6785992,0,108.39,100.5556,1,0.7,2025-04-18T10:36:45.418+03:00,109,1.816666666666667,2025-04-18T08:51:18.885+03:00,0.03057091307199995,1
2025-04-18T10:36:50.492+03:00,1744961806.632765,40.95359955957566,29.14097773549451,92.97792,-1,-1,-1,-1,30,24.65132846138212,-9999,61450.408602625,-0.689239501953125,0.6197357177734375,-0.3603363037109375,61450.398526625,1.334738007665556,-1.07671028538846,-0.6960542488979405,-0.07995963841676712,0.006115089636296034,0.05038032308220863,-0.01827651262283325,-0.01610326766967773,-0.0006208121776580811,XArbitraryZVertical,0.06832714307663486,-0.5597996009528644,0.6368651575288394,0.5256982480275336,-0.6756017208099365,0.6411948204040527,-0.3639116287231445,0,0,0,-1,-1,61449.50048666667,unknown,2,2025-04-18T10:36:49.579+03:00,2025-04-17T15:44:39.500+03:00,7155,1.074305,0,0,5905.219,4,10,2025-04-18T10:36:49.579+03:00,766654609.6785992,0,108.39,100.5556,1,0.7,2025-04-18T10:36:45.418+03:00,109,1.816666666666667,2025-04-18T08:51:18.885+03:00,0.03057091307199995,1
2025-04-18T10:36:50.503+03:00,1744961806.632765,40.95359955957566,29.14097773549451,92.97792,-1,-1,-1,-1,30,24.65132846138212,-9999,61450.41867962501,-0.6830596923828125,0.62176513671875,-0.3608856201171875,61450.408602625,1.334140045755365,-1.077037172000064,-0.6967585831062868,-0.07666664570569992,0.005951038561761379,0.04897244274616241,-0.01454240083694458,-0.02131277322769165,0.003018349409103394,XArbitraryZVertical,0.0680024716858111,-0.5600333621311833,0.6367663712288463,0.5256109587146232,-0.6753227114677429,0.6417351365089417,-0.3634766042232513,0,0,0,-1,-1,61449.50048666667,unknown,2,2025-04-18T10:36:49.579+03:00,2025-04-17T15:44:39.500+03:00,7155,1.074305,0,0,5905.219,4,10,2025-04-18T10:36:49.579+03:00,766654609.6785992,0,108.39,100.5556,1,0.7,2025-04-18T10:36:45.418+03:00,109,1.816666666666667,2025-04-18T08:51:18.885+03:00,0.03057091307199995,1
2025-04-18T10:36:50.514+03:00,1744961806.632765,40.95359955957566,29.14097773549451,92.97792,-1,-1,-1,-1,30,24.65132846138212,-9999,61450.42875562501,-0.6775054931640625,0.62213134765625,-0.358734130859375,61450.41867962501,1.333558621730409,-1.077288415507249,-0.6974818048807038,-0.07546236366033554,0.0140643585473299,0.04528876021504402,-0.008924365043640137,-0.02067708969116211,0.00236925482749939,XArbitraryZVertical,0.06765119569889246,-0.5602498000687673,0.6366764489148931,0.5255345516896865,-0.6750050783157349,0.6422896385192871,-0.3630869686603546,0,0,0,-1,-1,61449.50048666667,unknown,2,2025-04-18T10:36:49.579+03:00,2025-04-17T15:44:39.500+03:00,7155,1.074305,0,0,5905.219,4,10,2025-04-18T10:36:49.579+03:00,766654609.6785992,0,108.39,100.5556,1,0.7,2025-04-18T10:36:45.418+03:00,109,1.816666666666667,2025-04-18T08:51:18.885+03:00,0.03057091307199995,1
2025-04-18T10:36:50.523+03:00,1744961806.632765,40.95359955957566,29.14097773549451,92.97792,-1,-1,-1,-1,30,24.65132846138212,-9999,61450.438831625,-0.6758270263671875,0.629241943359375,-0.356353759765625,61450.42875562501,1.332997230003313,-1.077547954058002,-0.6981639446857777,-0.07222940772771835,0.006443856749683619,0.04152831062674522,-0.002960085868835449,-0.02158117294311523,0.003848105669021606,XArbitraryZVertical,0.06732326785368847,-0.5604600313664109,0.6365875201384742,0.5254603323672401,-0.6747133135795593,0.6428123116493225,-0.3627042472362518,0,0,0,-1,-1,61449.50048666667,unknown,2,2025-04-18T10:36:49.579+03:00,2025-04-17T15:44:39.500+03:00,7155,1.074305,0,0,5905.219,4,10,2025-04-18T10:36:49.579+03:00,766654609.6785992,0,108.39,100.5556,1,0.7,2025-04-18T10:36:45.418+03:00,109,1.816666666666667,2025-04-18T08:51:18.885+03:00,0.03057091307199995,1
2025-04-18T10:36:50.532+03:00,1744961806.632765,40.95359955957566,29.14097773549451,92.97792,-1,-1,-1,-1,30,24.65132846138212,-9999,61450.448908625,-0.669677734375,0.6356048583984375,-0.3580322265625,61450.438831625,1.332350089509247,-1.077872419187149,-0.6987883502445454,-0.07959172129631042,0.00998799130320549,0.03505256772041321,-0.001822829246520996,-0.01496404409408569,0.005483865737915039,XArbitraryZVertical,0.06701331792156072,-0.5606795392509953,0.6364682648324271,0.5254102871147562,-0.6744772791862488,0.6432905197143555,-0.3622953295707703,0,0,0,-1,-1,61449.50048666667,unknown,2,2025-04-18T10:36:49.579+03:00,2025-04-17T15:44:39.500+03:00,7155,1.074305,0,0,5905.219,4,10,2025-04-18T10:36:49.579+03:00,766654609.6785992,0,108.39,100.5556,1,0.7,2025-04-18T10:36:45.418+03:00,109,1.816666666666667,2025-04-18T08:51:18.885+03:00,0.03057091307199995,1
2025-04-18T10:36:50.543+03:00,1744961806.632765,40.95359955957566,29.14097773549451,92.97792,-1,-1,-1,-1,30,24.65132846138212,-9999,61450.458984625,-0.6747589111328125,0.6398773193359375,-0.36236572265625,61450.448908625,1.331630652948314,-1.07823676470889,-0.6993390907546007,-0.07760047912597656,0.007117636501789093,0.02117257006466389,0.004191935062408447,-0.009221017360687256,0.004292339086532593,XArbitraryZVertical,0.06672301616999865,-0.5608984223531733,0.6363215034664609,0.5253914130970139,-0.674297034740448,0.643712043762207,-0.3618820011615753,0,0,0,-1,-1,61449.50048666667,unknown,2,2025-04-18T10:36:49.579+03:00,2025-04-17T15:44:39.500+03:00,7155,1.074305,0,0,5905.219,4,10,2025-04-18T10:36:49.579+03:00,766654609.6785992,0,108.39,100.5556,1,0.7,2025-04-18T10:36:45.418+03:00,109,1.816666666666667,2025-04-18T08:51:18.885+03:00,0.03057091307199995,1
2025-04-18T10:36:50.553+03:00,1744961806.632765,40.95359955957566,29.14097773549451,92.97792,-1,-1,-1,-1,30,24.65132846138212,-9999,61450.469061625,-0.6747894287109375,0.64715576171875,-0.3626556396484375,61450.458984625,1.330840155407812,-1.078647928606824,-0.6997856173864513,-0.07371386140584946,0.01400190778076649,0.01529550552368164,-0.0002462267875671387,-0.00474095344543457,-0.0004390478134155273,XArbitraryZVertical,0.06646625616412954,-0.5611130058131827,0.63614431225737,0.5254093943784213,-0.6741923689842224,0.6440536975860596,-0.3614688515663147,0,0,0,-1,-1,61449.50048666667,unknown,2,2025-04-18T10:36:49.579+03:00,2025-04-17T15:44:39.500+03:00,7155,1.074305,0,0,5905.219,4,10,2025-04-18T10:36:49.579+03:00,766654609.6785992,0,108.39,100.5556,1,0.7,2025-04-18T10:36:45.418+03:00,109,1.816666666666667,2025-04-18T08:51:18.885+03:00,0.03057091307199995,1
2025-04-18T10:36:50.563+03:00,1744961806.632765,40.95359955957566,29.14097773549451,92.97792,-1,-1,-1,-1,30,24.65132846138212,-9999,61450.47913762501,-0.6759490966796875,0.6516571044921875,-0.36962890625,61450.469061625,1.33014442555483,-1.078893420867925,-0.7000926332083837,-0.06284390389919281,0.02872972004115582,0.007175527047365904,-0.001018404960632324,0.002317965030670166,-0.0004233121871948242,XArbitraryZVertical,0.06623506372574912,-0.5612556806889654,0.6359837764447283,0.5254805878964561,-0.674106776714325,0.6442885398864746,-0.3612099587917328,0,0,0,-1,-1,61449.50048666667,unknown,2,2025-04-18T10:36:49.579+03:00,2025-04-17T15:44:39.500+03:00,7155,1.074305,0,0,5905.219,4,10,2025-04-18T10:36:49.579+03:00,766654609.6785992,0,108.39,100.5556,1,0.7,2025-04-18T10:36:45.418+03:00,109,1.816666666666667,2025-04-18T08:51:18.885+03:00,0.03057091307199995,1
2025-04-18T10:36:50.573+03:00,1744961806.632765,40.95359955957566,29.14097773549451,92.97792,-1,-1,-1,-1,30,24.65132846138212,-9999,61450.48921462501,-0.6747283935546875,0.6544952392578125,-0.3511962890625,61450.47913762501,1.329296869831111,-1.079270026808144,-0.700337525865163,-0.08217152953147888,0.005417740903794765,-0.006495810113847256,-0.00210493803024292,0.006616771221160889,-0.008564233779907227,XArbitraryZVertical,0.06602597439722635,-0.5614265736520645,0.6357728940374394,0.5255794489689288,-0.6741036176681519,0.6444758176803589,-0.3608815371990204,0,0,0,-1,-1,61449.50048666667,unknown,2,2025-04-18T10:36:49.579+03:00,2025-04-17T15:44:39.500+03:00,7155,1.074305,0,0,5905.219,4,10,2025-04-18T10:36:49.579+03:00,766654609.6785992,0,108.39,100.5556,1,0.7,2025-04-18T10:36:45.418+03:00,109,1.816666666666667,2025-04-18T08:51:18.885+03:00,0.03057091307199995,1
2025-04-18T10:36:50.584+03:00,1744961806.632765,40.95359955957566,29.14097773549451,92.97792,-1,-1,-1,-1,30,24.65132846138212,-9999,61450.499290625,-0.6730804443359375,0.6497039794921875,-0.3458404541015625,61450.48921462501,1.328329485553978,-1.079874125655114,-0.7004678504045858,-0.05889370292425156,0.005033646710216999,-0.01768205314874649,-0.001091420650482178,0.01037764549255371,0.006217151880264282,XArbitraryZVertical,0.06589793581925031,-0.5616405721445354,0.6355116671891279,0.5256828110091456,-0.6742473840713501,0.6445754766464233,-0.3604346513748169,0,0,0,-1,-1,61449.50048666667,unknown,2,2025-04-18T10:36:49.579+03:00,2025-04-17T15:44:39.500+03:00,7155,1.074305,0,0,5905.219,4,10,2025-04-18T10:36:49.579+03:00,766654609.6785992,0,108.39,100.5556,1,0.7,2025-04-18T10:36:45.418+03:00,109,1.816666666666667,2025-04-18T08:51:18.885+03:00,0.03057091307199995,1
2025-04-18T10:36:50.593+03:00,1744961806.632765,40.95359955957566,29.14097773549451,92.97792,-1,-1,-1,-1,30,24.65132846138212,-9999,61450.509367625,-0.6738433837890625,0.651092529296875,-0.3629608154296875,61450.499290625,1.327625565933453,-1.080147324957888,-0.7004966107524048,-0.04322179779410362,0.03025857731699944,-0.01125397998839617,0.00106579065322876,0.005610108375549316,0.01669007539749146,XArbitraryZVertical,0.06577639819820656,-0.5617407188906809,0.6353204985125332,0.5258219694199083,-0.674329400062561,0.6445974111557007,-0.3602416515350342,0,0,0,-1,-1,61449.50048666667,unknown,2,2025-04-18T10:36:49.579+03:00,2025-04-17T15:44:39.500+03:00,7155,1.074305,0,0,5905.219,4,10,2025-04-18T10:36:49.579+03:00,766654609.6785992,0,108.39,100.5556,1,0.7,2025-04-18T10:36:45.418+03:00,109,1.816666666666667,2025-04-18T08:51:18.885+03:00,0.03057091307199995,1
2025-04-18T10:36:50.603+03:00,1744961806.632765,40.95359955957566,29.14097773549451,92.97792,-1,-1,-1,-1,30,24.65132846138212,-9999,61450.519443625,-0.6714324951171875,0.664154052734375,-0.35150146484375,61450.509367625,1.327105847477937,-1.080238660308634,-0.7005501557758878,-0.05391678586602211,0.03056483902037144,0.003443739842623472,0.0001527667045593262,0.005523383617401123,-0.002110302448272705,XArbitraryZVertical,0.06563950567065532,-0.5617913662478636,0.635186170345884,0.5259472945823509,-0.6743319034576416,0.6446383595466614,-0.3601638376712799,0,0,0,-1,-1,61449.50048666667,unknown,2,2025-04-18T10:36:49.579+03:00,2025-04-17T15:44:39.500+03:00,7155,1.074305,0,0,5905.219,4,10,2025-04-18T10:36:49.579+03:00,766654609.6785992,0,108.39,100.5556,1,0.7,2025-04-18T10:36:45.418+03:00,109,1.816666666666667,2025-04-18T08:51:18.885+03:00,0.03057091307199995,1
2025-04-18T10:36:50.613+03:00,1744961806.632765,40.95359955957566,29.14097773549451,92.97792,-1,-1,-1,-1,30,24.65132846138212,-9999,61450.529520625,-0.6771240234375,0.6639404296875,-0.35015869140625,61450.519443625,1.326316696893954,-1.080284888807389,-0.7008724753407095,-0.08594848215579987,0.05762362107634544,0.00246635964140296,0.003053128719329834,0.01719415187835693,0.006137728691101074,XArbitraryZVertical,0.06531268902639539,-0.5618868847439186,0.6350092219851931,0.5260995999918926,-0.6741652488708496,0.6448847651481628,-0.3600347638130188,0,0,0,-1,-1,61449.50048666667,unknown,2,2025-04-18T10:36:49.579+03:00,2025-04-17T15:44:39.500+03:00,7155,1.074305,0,0,5905.219,4,10,2025-04-18T10:36:49.579+03:00,766654609.6785992,0,108.39,100.5556,1,0.7,2025-04-18T10:36:45.418+03:00,109,1.816666666666667,2025-04-18T08:51:18.885+03:00,0.03057091307199995,1
2025-04-18T10:36:50.623+03:00,1744961806.632765,40.95359955957566,29.14097773549451,92.97792,-1,-1,-1,-1,30,24.65132846138212,-9999,61450.53959662501,-0.6963043212890625,0.6348114013671875,-0.354156494140625,61450.529520625,1.325101288471988,-1.080647254634111,-0.7011921891232538,-0.1046939492225647,0.009963157586753368,-0.04269219562411308,-0.001209795475006104,0.01942169666290283,0.01005354523658752,XArbitraryZVertical,0.06496734878351357,-0.5620787930106897,0.6347095491447542,0.5262989034601709,-0.6741136908531189,0.6451290845870972,-0.3596933484077454,0,0,0,-1,-1,61449.50048666667,unknown,2,2025-04-18T10:36:49.579+03:00,2025-04-17T15:44:39.500+03:00,7155,1.074305,0,0,5905.219,4,10,2025-04-18T10:36:49.579+03:00,766654609.6785992,0,108.39,100.5556,1,0.7,2025-04-18T10:36:45.418+03:00,109,1.816666666666667,2025-04-18T08:51:18.885+03:00,0.03057091307199995,1
2025-04-18T10:36:50.633+03:00,1744961806.632765,40.95359955957566,29.14097773549451,92.97792,-1,-1,-1,-1,30,24.65132846138212,-9999,61450.54967362501,-0.67474365234375,0.541168212890625,-0.345367431640625,61450.53959662501,1.324219586853651,-1.083587015866897,-0.70004264326544,-0.07851853221654892,-0.1608157753944397,0.02111794054508209,-0.01788729429244995,-0.001931548118591309,0.003412306308746338,XArbitraryZVertical,0.06607940286489151,-0.5626766288387024,0.6342659808943472,0.5260564018352473,-0.6758230924606323,0.6442502737045288,-0.358057051897049,0,0,0,-1,-1,61449.50048666667,unknown,2,2025-04-18T10:36:49.579+03:00,2025-04-17T15:44:39.500+03:00,7155,1.074305,0,0,5905.219,4,10,2025-04-18T10:36:49.579+03:00,766654609.6785992,0,108.39,100.5556,1,0.7,2025-04-18T10:36:45.418+03:00,109,1.816666666666667,2025-04-18T08:51:18.885+03:00,0.03057091307199995,1
2025-04-18T10:36:50.643+03:00,1744961806.632765,40.95359955957566,29.14097773549451,92.97792,-1,-1,-1,-1,30,24.65132846138212,-9999,61450.559749625,-0.656402587890625,0.6870880126953125,-0.386444091796875,61450.54967362501,1.322646441770877,-1.086484893944555,-0.7003817037046366,-0.1460842043161392,-0.2061227262020111,-0.08531046658754349,-0.007478654384613037,-0.09716153144836426,0.01111626625061035,XArbitraryZVertical,0.06642913962444701,-0.5635508021504291,0.6337906323823207,0.5256492523263104,-0.6766644716262817,0.6445095539093018,-0.3559953272342682,0,0,0,-1,-1,61449.50048666667,unknown,2,2025-04-18T10:36:49.579+03:00,2025-04-17T15:44:39.500+03:00,7155,1.074305,0,0,5905.219,4,10,2025-04-18T10:36:49.579+03:00,766654609.6785992,0,108.39,100.5556,1,0.7,2025-04-18T10:36:45.418+03:00,109,1.816666666666667,2025-04-18T08:51:18.885+03:00,0.03057091307199995,1
2025-04-18T10:36:50.653+03:00,1744961806.632765,40.95359955957566,29.14097773549451,92.97792,-1,-1,-1,-1,30,24.65132846138212,-9999,61450.569826625,-0.7310638427734375,0.7226409912109375,-0.387969970703125,61450.559749625,1.320185189169691,-1.090224997446349,-0.7002903628520226,-0.1863437443971634,-0.2373352497816086,-0.1142949834465981,0.03226089477539062,0.016754150390625,-0.02747684717178345,XArbitraryZVertical,0.06695339178146278,-0.5645995022612301,0.6330098775722715,0.5253981904374544,-0.6780434250831604,0.6444397568702698,-0.3534892797470093,0,0,0,-1,-1,61449.50048666667,unknown,2,2025-04-18T10:36:49.579+03:00,2025-04-17T15:44:39.500+03:00,7155,1.074305,0,0,5905.219,4,10,2025-04-18T10:36:49.579+03:00,766654609.6785992,0,108.39,100.5556,1,0.7,2025-04-18T10:36:45.418+03:00,109,1.816666666666667,2025-04-18T08:51:18.885+03:00,0.03057091307199995,1
2025-04-18T10:36:50.664+03:00,1744961806.632765,40.95359955957566,29.14097773549451,92.97792,-1,-1,-1,-1,30,24.65132846138212,-9999,61450.579902625,-0.6892852783203125,0.65106201171875,-0.35455322265625,61450.569826625,1.317168539101321,-1.094729735128583,-0.700014088078965,-0.2023913413286209,-0.2346371412277222,-0.1275732070207596,-0.0497051477432251,0.08912420272827148,-0.04121071100234985,XArbitraryZVertical,0.06762826832470037,-0.5658356497245549,0.6320375510936912,0.5251523968860596,-0.6797870993614197,0.644228458404541,-0.3505128622055054,0,0,0,-1,-1,61449.50048666667,unknown,2,2025-04-18T10:36:49.579+03:00,2025-04-17T15:44:39.500+03:00,7155,1.074305,0,0,5905.219,4,10,2025-04-18T10:36:49.579+03:00,766654609.6785992,0,108.39,100.5556,1,0.7,2025-04-18T10:36:45.418+03:00,109,1.816666666666667,2025-04-18T08:51:18.885+03:00,0.03057091307199995,1
2025-04-18T10:36:50.674+03:00,1744961806.632765,40.95359955957566,29.14097773549451,92.97792,-1,-1,-1,-1,30,24.65132846138212,-9999,61450.589979625,-0.642974853515625,0.6237945556640625,-0.3477325439453125,61450.579902625,1.314619608431921,-1.098935467503945,-0.6999641709718426,-0.1258230656385422,-0.2584833204746246,-0.07124627381563187,-0.01497465372085571,0.01178514957427979,-0.0100005567073822,XArbitraryZVertical,0.06825312420593187,-0.5670174535402914,0.6312204159726733,0.5247796590736588,-0.6812840104103088,0.6441903114318848,-0.3476654291152954,0,0,0,-1,-1,61449.50048666667,unknown,2,2025-04-18T10:36:49.579+03:00,2025-04-17T15:44:39.500+03:00,7155,1.074305,0,0,5905.219,4,10,2025-04-18T10:36:49.579+03:00,766654609.6785992,0,108.39,100.5556,1,0.7,2025-04-18T10:36:45.418+03:00,109,1.816666666666667,2025-04-18T08:51:18.885+03:00,0.03057091307199995,1
2025-04-18T10:36:50.684+03:00,1744961806.632765,40.95359955957566,29.14097773549451,92.97792,-1,-1,-1,-1,30,24.65132846138212,-9999,61450.600055625,-0.656402587890625,0.606597900390625,-0.348297119140625,61450.589979625,1.314958184418373,-1.098460165263214,-0.6993223589046691,0.07219015061855316,0.0229608491063118,0.006116155069321394,0.03445285558700562,-0.01489979028701782,0.0001852512359619141,XArbitraryZVertical,0.06843776535553274,-0.5667695157721373,0.6312582425263357,0.5249777344869063,-0.6814865469932556,0.6436992287635803,-0.3481771647930145,0,0,0,-1,-1,61449.50048666667,unknown,2,2025-04-18T10:36:49.579+03:00,2025-04-17T15:44:39.500+03:00,7155,1.074305,0,0,5905.219,4,10,2025-04-18T10:36:49.579+03:00,766654609.6785992,0,108.39,100.5556,1,0.7,2025-04-18T10:36:45.418+03:00,109,1.816666666666667,2025-04-18T08:51:18.885+03:00,0.03057091307199995,1
2025-04-18T10:36:50.694+03:00,1744961806.632765,40.95359955957566,29.14097773549451,92.97792,-1,-1,-1,-1,30,24.65132846138212,-9999,61450.61013262501,-0.6939544677734375,0.65753173828125,-0.3394927978515625,61450.600055625,1.315010707590977,-1.098448915688685,-0.6991998719833428,-0.007591498550027609,0.002956780372187495,-0.00202219863422215,0.03316110372543335,-0.03918963670730591,-0.001266509294509888,XArbitraryZVertical,0.06849464547599807,-0.5667434443313647,0.631259576779954,0.5249968351400021,-0.6815528273582458,0.6436055302619934,-0.3482207059860229,0,0,0,-1,-1,61449.50048666667,unknown,2,2025-04-18T10:36:49.579+03:00,2025-04-17T15:44:39.500+03:00,7155,1.074305,0,0,5905.219,4,10,2025-04-18T10:36:49.579+03:00,766654609.6785992,0,108.39,100.5556,1,0.7,2025-04-18T10:36:45.418+03:00,109,1.816666666666667,2025-04-18T08:51:18.885+03:00,0.03057091307199995,1
2025-04-18T10:36:50.704+03:00,1744961806.632765,40.95359955957566,29.14097773549451,92.97792,-1,-1,-1,-1,30,24.65132846138212,-9999,61450.62020862501,-0.667877197265625,0.6360931396484375,-0.3495330810546875,61450.61013262501,1.314938289203775,-1.098418287084242,-0.6992850481290042,-0.01605555787682533,0.01880764961242676,0.01417128462344408,-0.01444476842880249,0.009588539600372314,0.009013861417770386,XArbitraryZVertical,0.06843278285881729,-0.5667527093545949,0.6312505425668125,0.5250057814198407,-0.68149334192276,0.6436706781387329,-0.3482166528701782,0,0,0,-1,-1,61449.50048666667,unknown,2,2025-04-18T10:36:49.579+03:00,2025-04-17T15:44:39.500+03:00,7155,1.074305,0,0,5905.219,4,10,2025-04-18T10:36:49.579+03:00,766654609.6785992,0,108.39,100.5556,1,0.7,2025-04-18T10:36:45.418+03:00,109,1.816666666666667,2025-04-18T08:51:18.885+03:00,0.03057091307199995,1
2025-04-18T10:36:50.714+03:00,1744961806.632765,40.95359955957566,29.14097773549451,92.97792,-1,-1,-1,-1,30,24.65132846138212,-9999,61450.630285625,-0.6722564697265625,0.624755859375,-0.3463287353515625,61450.62020862501,1.314744626082319,-1.098507466442491,-0.6994909171818279,-0.0225661862641573,0.003822574159130454,0.02030987106263638,0.01291877031326294,-0.002714991569519043,-0.000827103853225708,XArbitraryZVertical,0.06832954447164512,-0.5668185827117929,0.6312182436045574,0.5249868504127471,-0.6814063191413879,0.6438282132148743,-0.3480955362319946,0,0,0,-1,-1,61449.50048666667,unknown,2,2025-04-18T10:36:49.579+03:00,2025-04-17T15:44:39.500+03:00,7155,1.074305,0,0,5905.219,4,10,2025-04-18T10:36:49.579+03:00,766654609.6785992,0,108.39,100.5556,1,0.7,2025-04-18T10:36:45.418+03:00,109,1.816666666666667,2025-04-18T08:51:18.885+03:00,0.03057091307199995,1
2025-04-18T10:36:50.725+03:00,1744961806.632765,40.95359955957566,29.14097773549451,92.97792,-1,-1,-1,-1,30,24.65132846138212,-9999,61450.640361625,-0.6714935302734375,0.63507080078125,-0.348236083984375,61450.630285625,1.314498838374762,-1.098757733671114,-0.6996993560402422,-0.03700850903987885,-0.006666818633675575,0.02466507256031036,0.009361624717712402,-0.02060514688491821,0.0004977583885192871,XArbitraryZVertical,0.06826128784511851,-0.5669288988656982,0.631167024903785,0.5249383814563663,-0.6813740134239197,0.6439877152442932,-0.347864031791687,0,0,0,-1,-1,61449.50048666667,unknown,2,2025-04-18T10:36:49.579+03:00,2025-04-17T15:44:39.500+03:00,7155,1.074305,0,0,5905.219,4,10,2025-04-18T10:36:49.579+03:00,766654609.6785992,0,108.39,100.5556,1,0.7,2025-04-18T10:36:45.418+03:00,109,1.816666666666667,2025-04-18T08:51:18.885+03:00,0.03057091307199995,1
2025-04-18T10:36:50.734+03:00,1744961806.632765,40.95359955957566,29.14097773549451,92.97792,-1,-1,-1,-1,30,24.65132846138212,-9999,61450.650437625,-0.6739349365234375,0.6348114013671875,-0.3500213623046875,61450.640361625,1.314205403448083,-1.099016430750489,-0.7001196433758973,-0.04276918992400169,-0.01610665954649448,0.02549997344613075,0.01033961772918701,-0.009543478488922119,1.534819602966309e-05,XArbitraryZVertical,0.0681034280629611,-0.567079838962926,0.6311252701351719,0.5248461363305689,-0.6812229156494141,0.6443091630935669,-0.3475647568702698,0,0,0,-1,-1,61449.50048666667,unknown,2,2025-04-18T10:36:49.579+03:00,2025-04-17T15:44:39.500+03:00,7155,1.074305,0,0,5905.219,4,10,2025-04-18T10:36:49.579+03:00,766654609.6785992,0,108.39,100.5556,1,0.7,2025-04-18T10:36:45.418+03:00,109,1.816666666666667,2025-04-18T08:51:18.885+03:00,0.03057091307199995,1
2025-04-18T10:36:50.744+03:00,1744961806.632765,40.95359955957566,29.14097773549451,92.97792,-1,-1,-1,-1,30,24.65132846138212,-9999,61450.660514625,-0.673370361328125,0.63995361328125,-0.3454132080078125,61450.650437625,1.313839436709491,-1.099430238864334,-0.7005662400331273,-0.04142003506422043,-0.01920391619205475,0.02532993070781231,0.006595373153686523,-0.01073944568634033,-0.002914994955062866,XArbitraryZVertical,0.06796417113256209,-0.5672784258387039,0.6310620269695724,0.5247255807009706,-0.6811102032661438,0.6446506977081299,-0.3471521139144897,0,0,0,-1,-1,61449.50048666667,unknown,2,2025-04-18T10:36:49.579+03:00,2025-04-17T15:44:39.500+03:00,7155,1.074305,0,0,5905.219,4,10,2025-04-18T10:36:49.579+03:00,766654609.6785992,0,108.39,100.5556,1,0.7,2025-04-18T10:36:45.418+03:00,109,1.816666666666667,2025-04-18T08:51:18.885+03:00,0.03057091307199995,1
2025-04-18T10:36:50.755+03:00,1744961806.632765,40.95359955957566,29.14097773549451,92.97792,-1,-1,-1,-1,30,24.65132846138212,-9999,61450.67059062501,-0.6756439208984375,0.6428985595703125,-0.3464508056640625,61450.660514625,1.313491602063596,-1.099804078018819,-0.7009800251825763,-0.04108794033527374,-0.01265573501586914,0.02596296370029449,0.007723331451416016,-0.00577622652053833,0.001851499080657959,XArbitraryZVertical,0.06782958066526068,-0.5674600871171802,0.6310015235440393,0.5246193179435731,-0.6810021996498108,0.6449669599533081,-0.3467763960361481,0,0,0,-1,-1,61449.50048666667,unknown,2,2025-04-18T10:36:49.579+03:00,2025-04-17T15:44:39.500+03:00,7155,1.074305,0,0,5905.219,4,10,2025-04-18T10:36:49.579+03:00,766654609.6785992,0,108.39,100.5556,1,0.7,2025-04-18T10:36:45.418+03:00,109,1.816666666666667,2025-04-18T08:51:18.885+03:00,0.03057091307199995,1
2025-04-18T10:36:50.765+03:00,1744961806.632765,40.95359955957566,29.14097773549451,92.97792,-1,-1,-1,-1,30,24.65132846138212,-9999,61450.68066762501,-0.6748046875,0.6417236328125,-0.3478240966796875,61450.67059062501,1.313233574827956,-1.100075063514255,-0.7014111333341949,-0.03724639862775803,-0.01056601852178574,0.02984182350337505,0.005051612854003906,-0.002321541309356689,0.00073203444480896,XArbitraryZVertical,0.06768159843579401,-0.5676146407954473,0.6309699480154084,0.5245090442664554,-0.6808481216430664,0.6452963352203369,-0.3464656472206116,0,0,0,-1,-1,61449.50048666667,unknown,2,2025-04-18T10:36:49.579+03:00,2025-04-17T15:44:39.500+03:00,7155,1.074305,0,0,5905.219,4,10,2025-04-18T10:36:49.579+03:00,766654609.6785992,0,108.39,100.5556,1,0.7,2025-04-18T10:36:45.418+03:00,109,1.816666666666667,2025-04-18T08:51:18.885+03:00,0.03057091307199995,1
2025-04-18T10:36:50.775+03:00,1744961806.632765,40.95359955957566,29.14097773549451,92.97792,-1,-1,-1,-1,30,24.65132846138212,-9999,61450.690743625,-0.6756591796875,0.6468505859375,-0.3463897705078125,61450.68066762501,1.312967288327708,-1.100262920400753,-0.701906196065763,-0.04272744804620743,-0.0002979356795549393,0.03429542854428291,0.005121827125549316,-0.004545927047729492,-0.002027899026870728,XArbitraryZVertical,0.06748114352550814,-0.5677586214357593,0.630945755658034,0.5244081980135072,-0.6806284189224243,0.645674467086792,-0.3461928963661194,0,0,0,-1,-1,61449.50048666667,unknown,2,2025-04-18T10:36:49.579+03:00,2025-04-17T15:44:39.500+03:00,7155,1.074305,0,0,5905.219,4,10,2025-04-18T10:36:49.579+03:00,766654609.6785992,0,108.39,100.5556,1,0.7,2025-04-18T10:36:45.418+03:00,109,1.816666666666667,2025-04-18T08:51:18.885+03:00,0.03057091307199995,1
2025-04-18T10:36:50.785+03:00,1744961806.632765,40.95359955957566,29.14097773549451,92.97792,-1,-1,-1,-1,30,24.65132846138212,-9999,61450.700820625,-0.6750946044921875,0.639984130859375,-0.3476409912109375,61450.690743625,1.312689607328302,-1.100522484213241,-0.7023936551947672,-0.03341623768210411,-0.01250160485506058,0.03459290415048599,0.005480349063873291,0.0003310441970825195,-0.0006534159183502197,XArbitraryZVertical,0.06730283151656465,-0.5679203479320182,0.6309153869082746,0.524292679014756,-0.6804377436637878,0.6460465788841248,-0.34587362408638,0,0,0,-1,-1,61449.50048666667,unknown,2,2025-04-18T10:36:49.579+03:00,2025-04-17T15:44:39.500+03:00,7155,1.074305,0,0,5905.219,4,10,2025-04-18T10:36:49.579+03:00,766654609.6785992,0,108.39,100.5556,1,0.7,2025-04-18T10:36:45.418+03:00,109,1.816666666666667,2025-04-18T08:51:18.885+03:00,0.03057091307199995,1
2025-04-18T10:36:50.795+03:00,1744961806.632765,40.95359955957566,29.14097773549451,92.97792,-1,-1,-1,-1,30,24.65132846138212,-9999,61450.710896625,-0.6737213134765625,0.636962890625,-0.3465423583984375,61450.700820625,1.312474131209074,-1.100867892707258,-0.7028355338692673,-0.04195752739906311,-0.02869096025824547,0.03198859840631485,0.00502467155456543,-0.005545198917388916,-0.002192795276641846,XArbitraryZVertical,0.0671863048841911,-0.5680945322995863,0.6308937150169096,0.5241448359484817,-0.6803024411201477,0.6463838219642639,-0.3455092012882233,0,0,0,-1,-1,61449.50048666667,unknown,2,2025-04-18T10:36:49.579+03:00,2025-04-17T15:44:39.500+03:00,7155,1.074305,0,0,5905.219,4,10,2025-04-18T10:36:49.579+03:00,766654609.6785992,0,108.39,100.5556,1,0.7,2025-04-18T10:36:45.418+03:00,109,1.816666666666667,2025-04-18T08:51:18.885+03:00,0.03057091307199995,1
2025-04-18T10:36:50.805+03:00,1744961806.632765,40.95359955957566,29.14097773549451,92.97792,-1,-1,-1,-1,30,24.65132846138212,-9999,61450.720973625,-0.6766357421875,0.643951416015625,-0.351898193359375,61450.710896625,1.312252995269957,-1.101344191611714,-0.703251609567228,-0.03223972022533417,-0.03408898785710335,0.03044699318706989,0.007070302963256836,-0.01054704189300537,-0.001494169235229492,XArbitraryZVertical,0.06711896202652926,-0.5682986183514047,0.6308634926916452,0.5239686000791708,-0.6802270412445068,0.6467012166976929,-0.3450634479522705,0,0,0,-1,-1,61449.50048666667,unknown,2,2025-04-18T10:36:49.579+03:00,2025-04-17T15:44:39.500+03:00,7155,1.074305,0,0,5905.219,4,10,2025-04-18T10:36:49.579+03:00,766654609.6785992,0,108.39,100.5556,1,0.7,2025-04-18T10:36:45.418+03:00,109,1.816666666666667,2025-04-18T08:51:18.885+03:00,0.03057091307199995,1
2025-04-18T10:36:50.815+03:00,1744961806.632765,40.95359955957566,29.14097773549451,92.97792,-1,-1,-1,-1,30,24.65132846138212,-9999,61450.73104962501,-0.6823577880859375,0.6502532958984375,-0.3485260009765625,61450.720973625,1.312022941300811,-1.101831802280967,-0.7036648124962405,-0.03869256004691124,-0.03770849108695984,0.026963846758008,0.00393301248550415,-0.004224598407745361,-0.006875216960906982,XArbitraryZVertical,0.06705368490335689,-0.5685053511207027,0.6308303098191236,0.5237926572261945,-0.6801568269729614,0.6470163464546204,-0.3446109294891357,0,0,0,-1,-1,61449.50048666667,unknown,2,2025-04-18T10:36:49.579+03:00,2025-04-17T15:44:39.500+03:00,7155,1.074305,0,0,5905.219,4,10,2025-04-18T10:36:49.579+03:00,766654609.6785992,0,108.39,100.5556,1,0.7,2025-04-18T10:36:45.418+03:00,109,1.816666666666667,2025-04-18T08:51:18.885+03:00,0.03057091307199995,1
2025-04-18T10:36:50.825+03:00,1744961806.632765,40.95359955957566,29.14097773549451,92.97792,-1,-1,-1,-1,30,24.65132846138212,-9999,61450.74112662501,-0.687103271484375,0.651336669921875,-0.3451995849609375,61450.73104962501,1.311812303825203,-1.102273330020404,-0.7040196599074218,-0.02426035702228546,-0.02679991722106934,0.02699766866862774,-0.00144505500793457,0.002676546573638916,-0.005341410636901855,XArbitraryZVertical,0.06700108200330271,-0.5686891993517424,0.6307976769442444,0.5236390942990002,-0.6801040768623352,0.6472868919372559,-0.3442068994045258,0,0,0,-1,-1,61449.50048666667,unknown,2,2025-04-18T10:36:49.579+03:00,2025-04-17T15:44:39.500+03:00,7155,1.074305,0,0,5905.219,4,10,2025-04-18T10:36:49.579+03:00,766654609.6785992,0,108.39,100.5556,1,0.7,2025-04-18T10:36:45.418+03:00,109,1.816666666666667,2025-04-18T08:51:18.885+03:00,0.03057091307199995,1
2025-04-18T10:36:50.835+03:00,1744961806.632765,40.95359955957566,29.14097773549451,92.97792,-1,-1,-1,-1,30,24.65132846138212,-9999,61450.751202625,-0.6900177001953125,0.65850830078125,-0.3484039306640625,61450.74112662501,1.31178352387495,-1.102452387094598,-0.7042840664360717,-0.009785544127225876,-0.007155109196901321,0.01963243074715137,-0.006739437580108643,0.00369572639465332,-0.0006881356239318848,XArbitraryZVertical,0.06695104277384621,-0.568782594619592,0.6308119641292432,0.52352680565856,-0.6800128817558289,0.6474884152412415,-0.3440078496932983,0,0,0,-1,-1,61449.50048666667,unknown,2,2025-04-18T10:36:49.579+03:00,2025-04-17T15:44:39.500+03:00,7155,1.074305,0,0,5905.219,4,10,2025-04-18T10:36:49.579+03:00,766654609.6785992,0,108.39,100.5556,1,0.7,2025-04-18T10:36:45.418+03:00,109,1.816666666666667,2025-04-18T08:51:18.885+03:00,0.03057091307199995,1
2025-04-18T10:36:50.845+03:00,1744961806.632765,40.95359955957566,29.14097773549451,92.97792,-1,-1,-1,-1,30,24.65132846138212,-9999,61450.761279625,-0.6827545166015625,0.6616973876953125,-0.348724365234375,61450.751202625,1.311900545572824,-1.102414488785032,-0.7044462290398079,0.00962543860077858,-0.001849559601396322,0.01776329055428505,-0.01058459281921387,0.01014876365661621,-0.003914147615432739,XArbitraryZVertical,0.06691202522634823,-0.5687966807213047,0.6308609123083395,0.5234575830393658,-0.6799062490463257,0.6476119756698608,-0.3439862430095673,0,0,0,-1,-1,61449.50048666667,unknown,2,2025-04-18T10:36:49.579+03:00,2025-04-17T15:44:39.500+03:00,7155,1.074305,0,0,5905.219,4,10,2025-04-18T10:36:49.579+03:00,766654609.6785992,0,108.39,100.5556,1,0.7,2025-04-18T10:36:45.418+03:00,109,1.816666666666667,2025-04-18T08:51:18.885+03:00,0.03057091307199995,1
2025-04-18T10:36:50.855+03:00,1744961806.632765,40.95359955957566,29.14097773549451,92.97792,-1,-1,-1,-1,30,24.65132846138212,-9999,61450.771355625,-0.68194580078125,0.66156005859375,-0.3405914306640625,61450.761279625,1.312217090495549,-1.102181846189369,-0.7045152662736091,0.02129381336271763,0.00308261439204216,0.01497070025652647,-0.004112780094146729,0.01392596960067749,-0.00540885329246521,XArbitraryZVertical,0.06690303982369036,-0.5687371189175048,0.6309588061757873,0.5234053096342761,-0.679786205291748,0.6476645469665527,-0.3441241383552551,0,0,0,-1,-1,61449.50048666667,unknown,2,2025-04-18T10:36:49.579+03:00,2025-04-17T15:44:39.500+03:00,7155,1.074305,0,0,5905.219,4,10,2025-04-18T10:36:49.579+03:00,766654609.6785992,0,108.39,100.5556,1,0.7,2025-04-18T10:36:45.418+03:00,109,1.816666666666667,2025-04-18T08:51:18.885+03:00,0.03057091307199995,1
2025-04-18T10:36:50.865+03:00,1744961806.632765,40.95359955957566,29.14097773549451,92.97792,-1,-1,-1,-1,30,24.65132846138212,-9999,61450.781432625,-0.6849517822265625,0.6644744873046875,-0.3469390869140625,61450.771355625,1.312615766945189,-1.10183785078273,-0.7044999419152759,0.03087393566966057,0.008448817767202854,0.008764701895415783,-0.001445293426513672,0.01323574781417847,0.003710001707077026,XArbitraryZVertical,0.06691359782505399,-0.5686311277640518,0.6310730430729462,0.523381316580051,-0.6796765327453613,0.6476529240608215,-0.3443624079227448,0,0,0,-1,-1,61449.50048666667,unknown,2,2025-04-18T10:36:49.579+03:00,2025-04-17T15:44:39.500+03:00,7155,1.074305,0,0,5905.219,4,10,2025-04-18T10:36:49.579+03:00,766654609.6785992,0,108.39,100.5556,1,0.7,2025-04-18T10:36:45.418+03:00,109,1.816666666666667,2025-04-18T08:51:18.885+03:00,0.03057091307199995,1
2025-04-18T10:36:50.875+03:00,1744961806.632765,40.95359955957566,29.14097773549451,92.97792,-1,-1,-1,-1,30,24.65132846138212,-9999,61450.79150862501,-0.6805419921875,0.6612091064453125,-0.3507537841796875,61450.781432625,1.312976668061946,-1.101539902964317,-0.7044313148681073,0.02240455150604248,-0.001740969251841307,0.006084763444960117,-0.00513988733291626,0.01714849472045898,-0.00197252631187439,XArbitraryZVertical,0.06694771072850958,-0.5685292455730693,0.6311702609423098,0.5233703751449977,-0.6796135306358337,0.6476005911827087,-0.3445850014686584,0,0,0,-1,-1,61449.50048666667,unknown,2,2025-04-18T10:36:49.579+03:00,2025-04-17T15:44:39.500+03:00,7155,1.074305,0,0,5905.219,4,10,2025-04-18T10:36:49.579+03:00,766654609.6785992,0,108.39,100.5556,1,0.7,2025-04-18T10:36:45.418+03:00,109,1.816666666666667,2025-04-18T08:51:18.885+03:00,0.03057091307199995,1
2025-04-18T10:36:50.886+03:00,1744961806.632765,40.95359955957566,29.14097773549451,92.97792,-1,-1,-1,-1,30,24.65132846138212,-9999,61450.80158562501,-0.674774169921875,0.6504669189453125,-0.348052978515625,61450.79150862501,1.313247004243959,-1.101464333563138,-0.7043528583576254,0.01525795739144087,-0.02114369720220566,0.002630643080919981,-0.001443147659301758,0.01432448625564575,-0.005804449319839478,XArbitraryZVertical,0.06702978715124444,-0.5684868432387029,0.6312352914519276,0.5233277324502972,-0.6796330213546753,0.647540807723999,-0.3446594476699829,0,0,0,-1,-1,61449.50048666667,unknown,2,2025-04-18T10:36:49.579+03:00,2025-04-17T15:44:39.500+03:00,7155,1.074305,0,0,5905.219,4,10,2025-04-18T10:36:49.579+03:00,766654609.6785992,0,108.39,100.5556,1,0.7,2025-04-18T10:36:45.418+03:00,109,1.816666666666667,2025-04-18T08:51:18.885+03:00,0.03057091307199995,1
2025-04-18T10:36:50.896+03:00,1744961806.632765,40.95359955957566,29.14097773549451,92.97792,-1,-1,-1,-1,30,24.65132846138212,-9999,61450.811661625,-0.6785430908203125,0.6534423828125,-0.346588134765625,61450.80158562501,1.313464998713004,-1.101528524659797,-0.7042986865429123,0.01496527623385191,-0.02217460423707962,0.003649035934358835,0.004622220993041992,0.003623545169830322,-0.003817975521087646,XArbitraryZVertical,0.06713216937231016,-0.5684869783564392,0.6312845008081902,0.5232550621250195,-0.6796863675117493,0.6474995613098145,-0.3446316421031952,0,0,0,-1,-1,61449.50048666667,unknown,2,2025-04-18T10:36:49.579+03:00,2025-04-17T15:44:39.500+03:00,7155,1.074305,0,0,5905.219,4,10,2025-04-18T10:36:49.579+03:00,766654609.6785992,0,108.39,100.5556,1,0.7,2025-04-18T10:36:45.418+03:00,109,1.816666666666667,2025-04-18T08:51:18.885+03:00,0.03057091307199995,1
2025-04-18T10:36:50.906+03:00,1744961806.632765,40.95359955957566,29.14097773549451,92.97792,-1,-1,-1,-1,30,24.65132846138212,-9999,61450.821738625,-0.684600830078125,0.6617279052734375,-0.347259521484375,61450.811661625,1.313722212837273,-1.101523662401297,-0.7042218574705533,0.02464599907398224,-0.01261532120406628,0.000994863105006516,0.002345561981201172,0.005040109157562256,-0.001961112022399902,XArbitraryZVertical,0.06723231525625326,-0.5684637983087963,0.6313439044333998,0.5231957026656738,-0.6797290444374084,0.6474409699440002,-0.3446574509143829,0,0,0,-1,-1,61449.50048666667,unknown,2,2025-04-18T10:36:49.579+03:00,2025-04-17T15:44:39.500+03:00,7155,1.074305,0,0,5905.219,4,10,2025-04-18T10:36:49.579+03:00,766654609.6785992,0,108.39,100.5556,1,0.7,2025-04-18T10:36:45.418+03:00,109,1.816666666666667,2025-04-18T08:51:18.885+03:00,0.03057091307199995,1
2025-04-18T10:36:50.916+03:00,1744961806.632765,40.95359955957566,29.14097773549451,92.97792,-1,-1,-1,-1,30,24.65132846138212,-9999,61450.831814625,-0.685546875,0.65802001953125,-0.3462982177734375,61450.821738625,1.314051458002425,-1.101370600939911,-0.704102193915381,0.03737378120422363,0.002484535332769156,-7.013499271124601e-05,-0.004092574119567871,0.01486647129058838,-0.002722293138504028,XArbitraryZVertical,0.06732203051841887,-0.5683919964439796,0.6314226403495954,0.5231672365460187,-0.6797454357147217,0.6473497748374939,-0.3447965681552887,0,0,0,-1,-1,61449.50048666667,unknown,2,2025-04-18T10:36:49.579+03:00,2025-04-17T15:44:39.500+03:00,7155,1.074305,0,0,5905.219,4,10,2025-04-18T10:36:49.579+03:00,766654609.6785992,0,108.39,100.5556,1,0.7,2025-04-18T10:36:45.418+03:00,109,1.816666666666667,2025-04-18T08:51:18.885+03:00,0.03057091307199995,1
2025-04-18T10:36:50.926+03:00,1744961806.632765,40.95359955957566,29.14097773549451,92.97792,-1,-1,-1,-1,30,24.65132846138212,-9999,61450.841890625,-0.685333251953125,0.658172607421875,-0.3462677001953125,61450.831814625,1.314523416271303,-1.100981295701152,-0.7038985886196235,0.04497271031141281,0.01592724025249481,-0.005323286633938551,-0.005955636501312256,0.01129847764968872,-0.001085817813873291,XArbitraryZVertical,0.06740892978940227,-0.5682390581274088,0.6315379017937134,0.5231830277300537,-0.679728627204895,0.6471945643424988,-0.3451208174228668,0,0,0,-1,-1,61449.50048666667,unknown,2,2025-04-18T10:36:49.579+03:00,2025-04-17T15:44:39.500+03:00,7155,1.074305,0,0,5905.219,4,10,2025-04-18T10:36:49.579+03:00,766654609.6785992,0,108.39,100.5556,1,0.7,2025-04-18T10:36:45.418+03:00,109,1.816666666666667,2025-04-18T08:51:18.885+03:00,0.03057091307199995,1
2025-04-18T10:36:50.936+03:00,1744961806.632765,40.95359955957566,29.14097773549451,92.97792,-1,-1,-1,-1,30,24.65132846138212,-9999,61450.85196762501,-0.68194580078125,0.6559600830078125,-0.344329833984375,61450.841890625,1.31507864445855,-1.100428680177811,-0.7036650634810965,0.04967931285500526,0.02325306460261345,-0.003665735246613622,-0.006133854389190674,0.01060682535171509,-0.0009621679782867432,XArbitraryZVertical,0.06747893966795465,-0.5680353401471676,0.6316773692641429,0.5232268736442208,-0.6796725392341614,0.6470165252685547,-0.3455649018287659,0,0,0,-1,-1,61449.50048666667,unknown,2,2025-04-18T10:36:49.579+03:00,2025-04-17T15:44:39.500+03:00,7155,1.074305,0,0,5905.219,4,10,2025-04-18T10:36:49.579+03:00,766654609.6785992,0,108.39,100.5556,1,0.7,2025-04-18T10:36:45.418+03:00,109,1.816666666666667,2025-04-18T08:51:18.885+03:00,0.03057091307199995,1
2025-04-18T10:36:50.946+03:00,1744961806.632765,40.95359955957566,29.14097773549451,92.97792,-1,-1,-1,-1,30,24.65132846138212,-9999,61450.86204362501,-0.6808624267578125,0.64703369140625,-0.34613037109375,61450.85196762501,1.31563761001355,-1.09981980261369,-0.7034519592466432,0.05078991875052452,0.02860102243721485,-0.001495358883403242,-0.002834081649780273,0.009579062461853027,0.001879215240478516,XArbitraryZVertical,0.06752460377702249,-0.5678202560612423,0.6318219191531741,0.5232797830868023,-0.6795847415924072,0.646854043006897,-0.3460411727428436,0,0,0,-1,-1,61449.50048666667,unknown,2,2025-04-18T10:36:49.579+03:00,2025-04-17T15:44:39.500+03:00,7155,1.074305,0,0,5905.219,4,10,2025-04-18T10:36:49.579+03:00,766654609.6785992,0,108.39,100.5556,1,0.7,2025-04-18T10:36:45.418+03:00,109,1.816666666666667,2025-04-18T08:51:18.885+03:00,0.03057091307199995,1
2025-04-18T10:36:50.956+03:00,1744961806.632765,40.95359955957566,29.14097773549451,92.97792,-1,-1,-1,-1,30,24.65132846138212,-9999,61450.872120625,-0.6792755126953125,0.64239501953125,-0.3489227294921875,61450.86204362501,1.316196379219794,-1.099192879082209,-0.7032566999659989,0.04710064083337784,0.02445927448570728,0.0005896298680454493,-0.001153409481048584,0.001747667789459229,0.001355528831481934,XArbitraryZVertical,0.06755772102988855,-0.5676034648867586,0.6319689395490889,0.5233331620257575,-0.6794801950454712,0.646705150604248,-0.3465245366096497,0,0,0,-1,-1,61449.50048666667,unknown,2,2025-04-18T10:36:49.579+03:00,2025-04-17T15:44:39.500+03:00,7155,1.074305,0,0,5905.219,4,10,2025-04-18T10:36:49.579+03:00,766654609.6785992,0,108.39,100.5556,1,0.7,2025-04-18T10:36:45.418+03:00,109,1.816666666666667,2025-04-18T08:51:18.885+03:00,0.03057091307199995,1
2025-04-18T10:36:50.966+03:00,1744961806.632765,40.95359955957566,29.14097773549451,92.97792,-1,-1,-1,-1,30,24.65132846138212,-9999,61450.882196625,-0.67449951171875,0.638092041015625,-0.3502960205078125,61450.872120625,1.316692380684494,-1.098650681284845,-0.7031249181067466,0.03146788477897644,0.01619788445532322,0.004415526986122131,-0.0009450912475585938,-0.003202497959136963,-0.001807928085327148,XArbitraryZVertical,0.06757612073625729,-0.5674219391068331,0.6321033331298831,0.5233652813252077,-0.6793680787086487,0.646604597568512,-0.3469316363334656,0,0,0,-1,-1,61449.50048666667,unknown,2,2025-04-18T10:36:49.579+03:00,2025-04-17T15:44:39.500+03:00,7155,1.074305,0,0,5905.219,4,10,2025-04-18T10:36:49.579+03:00,766654609.6785992,0,108.39,100.5556,1,0.7,2025-04-18T10:36:45.418+03:00,109,1.816666666666667,2025-04-18T08:51:18.885+03:00,0.03057091307199995,1
2025-04-18T10:36:50.976+03:00,1744961806.632765,40.95359955957566,29.14097773549451,92.97792,-1,-1,-1,-1,30,24.65132846138212,-9999,61450.892273625,-0.6707611083984375,0.635406494140625,-0.3450164794921875,61450.882196625,1.317089662401662,-1.098284889973871,-0.7030711179021486,0.02574821561574936,0.00100614782422781,0.007373500615358353,0.004696249961853027,-0.008669912815093994,-0.003618806600570679,XArbitraryZVertical,0.06759323030919935,-0.5673034481291105,0.6322140669450622,0.5233576936425061,-0.6792720556259155,0.6465635895729065,-0.3471958935260773,0,0,0,-1,-1,61449.50048666667,unknown,2,2025-04-18T10:36:49.579+03:00,2025-04-17T15:44:39.500+03:00,7155,1.074305,0,0,5905.219,4,10,2025-04-18T10:36:49.579+03:00,766654609.6785992,0,108.39,100.5556,1,0.7,2025-04-18T10:36:45.418+03:00,109,1.816666666666667,2025-04-18T08:51:18.885+03:00,0.03057091307199995,1
2025-04-18T10:36:50.986+03:00,1744961806.632765,40.95359955957566,29.14097773549451,92.97792,-1,-1,-1,-1,30,24.65132846138212,-9999,61450.902349625,-0.66912841796875,0.6352691650390625,-0.33905029296875,61450.892273625,1.317418710260373,-1.09811855061722,-0.7030651850568618,0.02040271833539009,-0.01060390286147594,0.01085092313587666,0.008349776268005371,-0.01066428422927856,0.001409202814102173,XArbitraryZVertical,0.06763617372269565,-0.567247763982872,0.6323051732851934,0.5233024535651311,-0.6792176961898804,0.6465590596199036,-0.3473106324672699,0,0,0,-1,-1,61449.50048666667,unknown,2,2025-04-18T10:36:49.579+03:00,2025-04-17T15:44:39.500+03:00,7155,1.074305,0,0,5905.219,4,10,2025-04-18T10:36:49.579+03:00,766654609.6785992,0,108.39,100.5556,1,0.7,2025-04-18T10:36:45.418+03:00,109,1.816666666666667,2025-04-18T08:51:18.885+03:00,0.03057091307199995,1
2025-04-18T10:36:50.996+03:00,1744961806.632765,40.95359955957566,29.14097773549451,92.97792,-1,-1,-1,-1,30,24.65132846138212,-9999,61450.91242662501,-0.67144775390625,0.6422119140625,-0.3358917236328125,61450.902349625,1.317752492911008,-1.097994517901346,-0.7030821638738798,0.02815145254135132,-0.004869318101555109,0.009517211467027664,0.009838104248046875,-0.01183688640594482,0.007927656173706055,XArbitraryZVertical,0.06768525934915298,-0.5672069589184946,0.6323984511025499,0.5232277508586339,-0.6791649460792542,0.6465719938278198,-0.3473899364471436,0,0,0,-1,-1,61449.50048666667,unknown,2,2025-04-18T10:36:49.579+03:00,2025-04-17T15:44:39.500+03:00,7155,1.074305,0,0,5905.219,4,10,2025-04-18T10:36:49.579+03:00,766654609.6785992,0,108.39,100.5556,1,0.7,2025-04-18T10:36:45.418+03:00,109,1.816666666666667,2025-04-18T08:51:18.885+03:00,0.03057091307199995,1
2025-04-18T10:36:51.006+03:00,1744961806.632765,40.95359955957566,29.14097773549451,92.97792,-1,-1,-1,-1,30,24.65132846138212,-9999,61450.92250350001,-0.6742401123046875,0.643646240234375,-0.3366546630859375,61450.91242662501,1.318111885574708,-1.097797900937238,-0.7030627199184981,0.02810957282781601,0.001340840477496386,0.0095266317948699,0.008270323276519775,-0.005184471607208252,0.01191216707229614,XArbitraryZVertical,0.06773225520519063,-0.5671399789366026,0.6324971124077334,0.5231749502895956,-0.6791077852249146,0.6465571522712708,-0.3475291728973389,0,0,0,-1,-1,61449.50048666667,unknown,2,2025-04-18T10:36:49.579+03:00,2025-04-17T15:44:39.500+03:00,7155,1.074305,0,0,5905.219,4,10,2025-04-18T10:36:49.579+03:00,766654609.6785992,0,108.39,100.5556,1,0.7,2025-04-18T10:36:45.418+03:00,109,1.816666666666667,2025-04-18T08:51:18.885+03:00,0.03057091307199995,1
2025-04-18T10:36:51.025+03:00,1744961806.632765,40.95359955957566,29.14097773549451,92.97792,-1,-1,-1,-1,30,24.65132846138212,-9999,61450.9325805,-0.67462158203125,0.6376800537109375,-0.3399200439453125,61450.92250350001,1.318533179549716,-1.097476939206977,-0.703024855880511,0.03287050873041153,0.009972944855690002,0.01008616201579571,0.004777848720550537,-0.002759933471679688,0.01137834787368774,XArbitraryZVertical,0.06776424840217532,-0.5670351456901718,0.6326142595115668,0.5231428474752744,-0.6790180206298828,0.6465283036231995,-0.3477582931518555,0,0,0,-1,-1,61449.50048666667,unknown,2,2025-04-18T10:36:49.579+03:00,2025-04-17T15:44:39.500+03:00,7155,1.074305,0,0,5905.219,4,10,2025-04-18T10:36:49.579+03:00,766654609.6785992,0,108.39,100.5556,1,0.7,2025-04-18T10:36:45.418+03:00,109,1.816666666666667,2025-04-18T08:51:18.885+03:00,0.03057091307199995,1
2025-04-18T10:36:51.028+03:00,1744961806.632765,40.95359955957566,29.14097773549451,92.97792,-1,-1,-1,-1,30,24.65132846138212,-9999,61450.9426565,-0.6780242919921875,0.63568115234375,-0.3406829833984375,61450.9325805,1.318926525029413,-1.097112882810764,-0.7030067510362341,0.0292319618165493,0.01437608152627945,0.01118025649338961,0.003868222236633301,-0.007827281951904297,0.008350253105163574,XArbitraryZVertical,0.06776729573811126,-0.5669234267159043,0.6327276027090812,0.5231265233959415,-0.6789018511772156,0.6465144753456116,-0.3480108380317688,0,0,0,-1,-1,61449.50048666667,unknown,2,2025-04-18T10:36:49.579+03:00,2025-04-17T15:44:39.500+03:00,7155,1.074305,0,0,5905.219,4,10,2025-04-18T10:36:49.579+03:00,766654609.6785992,0,108.39,100.5556,1,0.7,2025-04-18T10:36:45.418+03:00,109,1.816666666666667,2025-04-18T08:51:18.885+03:00,0.03057091307199995,1
2025-04-18T10:36:51.037+03:00,1744961806.632765,40.95359955957566,29.14097773549451,92.97792,-1,-1,-1,-1,30,24.65132846138212,-9999,61450.9527335,-0.6784820556640625,0.6329193115234375,-0.34100341796875,61450.9426565,1.319280866877587,-1.096757406707481,-0.7030084649597298,0.01958945579826832,0.0138357263058424,0.01620457507669926,0.0006764531135559082,-0.01008689403533936,0.008026480674743652,XArbitraryZVertical,0.06775463234107144,-0.5668187452793665,0.6328325069727609,0.523114681408086,-0.6787770986557007,0.6465157866477966,-0.3482516407966614,0,0,0,-1,-1,61449.50048666667,unknown,2,2025-04-18T10:36:49.579+03:00,2025-04-17T15:44:39.500+03:00,7155,1.074305,0,0,5905.219,4,10,2025-04-18T10:36:49.579+03:00,766654609.6785992,0,108.39,100.5556,1,0.7,2025-04-18T10:36:45.418+03:00,109,1.816666666666667,2025-04-18T08:51:18.885+03:00,0.03057091307199995,1
2025-04-18T10:36:51.047+03:00,1744961806.632765,40.95359955957566,29.14097773549451,92.97792,-1,-1,-1,-1,30,24.65132846138212,-9999,61450.9628095,-0.677703857421875,0.6356353759765625,-0.3434295654296875,61450.9527335,1.319563963148679,-1.096411036700598,-0.7030708071474051,0.01414888445287943,0.01616759039461613,0.01633293926715851,0.0006267428398132324,-0.01378130912780762,0.008456766605377197,XArbitraryZVertical,0.06770207502470348,-0.5667294451760153,0.6329247185954864,0.5231067159005918,-0.6786205768585205,0.6465633511543274,-0.3484683334827423,0,0,0,-1,-1,61449.50048666667,unknown,2,2025-04-18T10:36:49.579+03:00,2025-04-17T15:44:39.500+03:00,7155,1.074305,0,0,5905.219,4,10,2025-04-18T10:36:49.579+03:00,766654609.6785992,0,108.39,100.5556,1,0.7,2025-04-18T10:36:45.418+03:00,109,1.816666666666667,2025-04-18T08:51:18.885+03:00,0.03057091307199995,1
2025-04-18T10:36:51.057+03:00,1744961806.632765,40.95359955957566,29.14097773549451,92.97792,-1,-1,-1,-1,30,24.65132846138212,-9999,61450.97288650001,-0.67266845703125,0.6387786865234375,-0.343963623046875,61450.9628095,1.319740273705281,-1.096137881528517,-0.7031798239824028,-0.002137411385774612,0.01029212400317192,0.01858650706708431,0.0001941323280334473,-0.01204872131347656,0.006183713674545288,XArbitraryZVertical,0.06762512987605822,-0.5666710978362461,0.6329913316894142,0.5230991503404114,-0.6784625649452209,0.6466464996337891,-0.3486214280128479,0,0,0,-1,-1,61449.50048666667,unknown,2,2025-04-18T10:36:49.579+03:00,2025-04-17T15:44:39.500+03:00,7155,1.074305,0,0,5905.219,4,10,2025-04-18T10:36:49.579+03:00,766654609.6785992,0,108.39,100.5556,1,0.7,2025-04-18T10:36:45.418+03:00,109,1.816666666666667,2025-04-18T08:51:18.885+03:00,0.03057091307199995,1
2025-04-18T10:36:51.067+03:00,1744961806.632765,40.95359955957566,29.14097773549451,92.97792,-1,-1,-1,-1,30,24.65132846138212,-9999,61450.98296250001,-0.665679931640625,0.6407928466796875,-0.35260009765625,61450.97288650001,1.319859601767956,-1.096041088455779,-0.7033120386981301,0.0062276441603899,-0.01055316999554634,0.01585493609309196,0.004738271236419678,-0.008151710033416748,0.0053253173828125,XArbitraryZVertical,0.06757914699185358,-0.5666648405844037,0.6330394398763581,0.5230537346403933,-0.6783528327941895,0.646747350692749,-0.3486480414867401,0,0,0,-1,-1,61449.50048666667,unknown,2,2025-04-18T10:36:49.579+03:00,2025-04-17T15:44:39.500+03:00,7155,1.074305,0,0,5905.219,4,10,2025-04-18T10:36:49.579+03:00,766654609.6785992,0,108.39,100.5556,1,0.7,2025-04-18T10:36:45.418+03:00,109,1.816666666666667,2025-04-18T08:51:18.885+03:00,0.03057091307199995,1
2025-04-18T10:36:51.077+03:00,1744961806.632765,40.95359955957566,29.14097773549451,92.97792,-1,-1,-1,-1,30,24.65132846138212,-9999,61450.9930395,-0.6651153564453125,0.64739990234375,-0.3495330810546875,61450.98296250001,1.320022454187597,-1.09616948120262,-0.7033798978356579,0.009080689400434494,-0.03192850202322006,0.01045005023479462,0.01209878921508789,-0.006982743740081787,-0.001693993806838989,XArbitraryZVertical,0.06764066585305775,-0.5667047505259055,0.6330846718294938,0.5229479192338535,-0.6783586740493774,0.6467990875244141,-0.3485409319400787,0,0,0,-1,-1,61449.50048666667,unknown,2,2025-04-18T10:36:49.579+03:00,2025-04-17T15:44:39.500+03:00,7155,1.074305,0,0,5905.219,4,10,2025-04-18T10:36:49.579+03:00,766654609.6785992,0,108.39,100.5556,1,0.7,2025-04-18T10:36:45.418+03:00,109,1.816666666666667,2025-04-18T08:51:18.885+03:00,0.03057091307199995,1
2025-04-18T10:36:51.087+03:00,1744961806.632765,40.95359955957566,29.14097773549451,92.97792,-1,-1,-1,-1,30,24.65132846138212,-9999,61451.0031155,-0.6693878173828125,0.640106201171875,-0.32708740234375,61450.9930395,1.320093349461797,-1.096510852824479,-0.7034875472925707,-0.007848227396607399,-0.03971904516220093,0.01279056910425425,0.01317811012268066,1.519918441772461e-05,-0.004261493682861328,XArbitraryZVertical,0.06772885864711717,-0.5668104189256267,0.6331027578672944,0.5227999770375675,-0.6784155964851379,0.6468811631202698,-0.3482775092124939,0,0,0,-1,-1,61449.50048666667,unknown,2,2025-04-18T10:36:49.579+03:00,2025-04-17T15:44:39.500+03:00,7155,1.074305,0,0,5905.219,4,10,2025-04-18T10:36:49.579+03:00,766654609.6785992,0,108.39,100.5556,1,0.7,2025-04-18T10:36:45.418+03:00,109,1.816666666666667,2025-04-18T08:51:18.885+03:00,0.03057091307199995,1
2025-04-18T10:36:51.097+03:00,1744961806.632765,40.95359955957566,29.14097773549451,92.97792,-1,-1,-1,-1,30,24.65132846138212,-9999,61451.0131925,-0.675872802734375,0.6309967041015625,-0.33984375,61451.0031155,1.319991307030009,-1.096960593236747,-0.7036174717171471,-0.006407989654690027,-0.03010636568069458,0.002122478792443871,0.009552001953125,-0.004951417446136475,0.0187256932258606,XArbitraryZVertical,0.06779401813135674,-0.5669541102675903,0.6330742495602349,0.5226702642760648,-0.6784973740577698,0.6469802856445312,-0.3479340076446533,0,0,0,-1,-1,61449.50048666667,unknown,2,2025-04-18T10:36:49.579+03:00,2025-04-17T15:44:39.500+03:00,7155,1.074305,0,0,5905.219,4,10,2025-04-18T10:36:49.579+03:00,766654609.6785992,0,108.39,100.5556,1,0.7,2025-04-18T10:36:45.418+03:00,109,1.816666666666667,2025-04-18T08:51:18.885+03:00,0.03057091307199995,1
2025-04-18T10:36:51.107+03:00,1744961806.632765,40.95359955957566,29.14097773549451,92.97792,-1,-1,-1,-1,30,24.65132846138212,-9999,61451.0232685,-0.6736907958984375,0.6392364501953125,-0.3502960205078125,61451.0131925,1.319951226997783,-1.09726275848399,-0.7036157946797396,6.433430826291442e-06,-0.02416918054223061,-0.002908265683799982,0.004119038581848145,-0.01601278781890869,0.01110529899597168,XArbitraryZVertical,0.06787897726670591,-0.5670341557211825,0.6330533629149456,0.5225975619002659,-0.6786033511161804,0.6469789743423462,-0.3477294147014618,0,0,0,-1,-1,61449.50048666667,unknown,2,2025-04-18T10:36:49.579+03:00,2025-04-17T15:44:39.500+03:00,7155,1.074305,0,0,5905.219,4,10,2025-04-18T10:36:49.579+03:00,766654609.6785992,0,108.39,100.5556,1,0.7,2025-04-18T10:36:45.418+03:00,109,1.816666666666667,2025-04-18T08:51:18.885+03:00,0.03057091307199995,1
2025-04-18T10:36:51.117+03:00,1744961806.632765,40.95359955957566,29.14097773549451,92.97792,-1,-1,-1,-1,30,24.65132846138212,-9999,61451.03334450001,-0.673370361328125,0.633758544921875,-0.337127685546875,61451.0232685,1.319853458422372,-1.097562329227669,-0.7036093609277467,-0.01052077580243349,-0.01965352334082127,0.001818845281377435,0.005173027515411377,-0.008408963680267334,-0.00346982479095459,XArbitraryZVertical,0.06794842365328674,-0.5671146124107747,0.6330169733794889,0.5225454154094724,-0.6787112951278687,0.6469740867614746,-0.3475280702114105,0,0,0,-1,-1,61449.50048666667,unknown,2,2025-04-18T10:36:49.579+03:00,2025-04-17T15:44:39.500+03:00,7155,1.074305,0,0,5905.219,4,10,2025-04-18T10:36:49.579+03:00,766654609.6785992,0,108.39,100.5556,1,0.7,2025-04-18T10:36:45.418+03:00,109,1.816666666666667,2025-04-18T08:51:18.885+03:00,0.03057091307199995,1
2025-04-18T10:36:51.127+03:00,1744961806.632765,40.95359955957566,29.14097773549451,92.97792,-1,-1,-1,-1,30,24.65132846138212,-9999,61451.04342150001,-0.67205810546875,0.62255859375,-0.339202880859375,61451.03334450001,1.319640374893466,-1.097927534193508,-0.7036852028301607,-0.02509439364075661,-0.0299554318189621,0.006057931575924158,0.006278455257415771,-0.01174747943878174,0.009229898452758789,XArbitraryZVertical,0.06797544245887467,-0.5672305078933243,0.6329567385995784,0.5224889832644519,-0.6787943840026855,0.6470319032669067,-0.3472577929496765,0,0,0,-1,-1,61449.50048666667,unknown,2,2025-04-18T10:36:49.579+03:00,2025-04-17T15:44:39.500+03:00,7155,1.074305,0,0,5905.219,4,10,2025-04-18T10:36:49.579+03:00,766654609.6785992,0,108.39,100.5556,1,0.7,2025-04-18T10:36:45.418+03:00,109,1.816666666666667,2025-04-18T08:51:18.885+03:00,0.03057091307199995,1
2025-04-18T10:36:51.137+03:00,1744961806.632765,40.95359955957566,29.14097773549451,92.97792,-1,-1,-1,-1,30,24.65132846138212,-9999,61451.0534975,-0.6630096435546875,0.6286773681640625,-0.3383941650390625,61451.04342150001,1.319261749848044,-1.098583251871972,-0.7038742084982528,-0.04210267215967178,-0.0467945970594883,0.00712559325620532,0.00629037618637085,-0.02390015125274658,0.007920354604721069,XArbitraryZVertical,0.06800529540361133,-0.5674475954544476,0.6328550966204035,0.5223725743120055,-0.6789131164550781,0.6471760272979736,-0.3467570245265961,0,0,0,-1,-1,61449.50048666667,unknown,2,2025-04-18T10:36:49.579+03:00,2025-04-17T15:44:39.500+03:00,7155,1.074305,0,0,5905.219,4,10,2025-04-18T10:36:49.579+03:00,766654609.6785992,0,108.39,100.5556,1,0.7,2025-04-18T10:36:45.418+03:00,109,1.816666666666667,2025-04-18T08:51:18.885+03:00,0.03057091307199995,1
2025-04-18T10:36:51.148+03:00,1744961806.632765,40.95359955957566,29.14097773549451,92.97792,-1,-1,-1,-1,30,24.65132846138212,-9999,61451.0635745,-0.6642303466796875,0.6356353759765625,-0.3495941162109375,61451.0534975,1.318775797066806,-1.099448777375397,-0.7041078439342119,-0.04278403893113136,-0.06360699981451035,-5.502148997038603e-05,0.01483261585235596,-0.01985162496566772,0.00766068696975708,XArbitraryZVertical,0.06805445268939311,-0.5677308327641462,0.6327229668639074,0.5222184265916945,-0.679078221321106,0.6473540663719177,-0.3461005985736847,0,0,0,-1,-1,61449.50048666667,unknown,2,2025-04-18T10:36:49.579+03:00,2025-04-17T15:44:39.500+03:00,7155,1.074305,0,0,5905.219,4,10,2025-04-18T10:36:49.579+03:00,766654609.6785992,0,108.39,100.5556,1,0.7,2025-04-18T10:36:45.418+03:00,109,1.816666666666667,2025-04-18T08:51:18.885+03:00,0.03057091307199995,1
